"","subnum","condition","task","order","trial","interference","date","max","exponent","threshold","correct","rt1","rt2","r","addends","sum","digits","int_score","trial_time","dot","dob","age","gender","abacus_q","finger.counter","male","gender.12"
"16",2,"baseline","baseline",3,17,0,"20130708T171657",19.7,1.2,12,0,20.6,21.46,43,1,53,"19  13  21",-1,24.6,"7/8/13","8/20/00",12.88158795,"F","",0,0,1
"17",2,"baseline","baseline",3,18,0,"20130708T171657",17.8,1.2,11,1,10.02,11.33,36,1,36,"19   6  11",-1,14.2,"7/8/13","8/20/00",12.88158795,"F","",0,0,1
"20",2,"baseline","baseline",3,8,0,"20130708T171657",6.9,1.2,5,1,3.13,3.88,11,1,11,"2  3  6",-1,6.74,"7/8/13","8/20/00",12.88158795,"F","",0,0,1
"21",2,"baseline","baseline",3,9,0,"20130708T171657",8.59,1.2,6,1,4.02,4.76,12,1,12,"8  3  1",-1,7.5,"7/8/13","8/20/00",12.88158795,"F","",0,0,1
"22",2,"baseline","baseline",3,10,0,"20130708T171657",10.3,1.2,7,1,4.11,4.76,26,1,26,"11  10   5",-1,7.85,"7/8/13","8/20/00",12.88158795,"F","",0,0,1
"23",2,"baseline","baseline",3,11,0,"20130708T171657",12.1,1.2,8,1,5.94,6.74,28,1,28,"11   6  11",-1,9.97,"7/8/13","8/20/00",12.88158795,"F","",0,0,1
"24",2,"baseline","baseline",3,12,0,"20130708T171657",14,1.2,9,1,1.95,2.68,24,1,24,"5  15   4",-1,6.09,"7/8/13","8/20/00",12.88158795,"F","",0,0,1
"25",2,"baseline","baseline",3,13,0,"20130708T171657",15.8,1.2,10,1,2.4,3.37,18,1,18,"1   1  16",-1,6.23,"7/8/13","8/20/00",12.88158795,"F","",0,0,1
"26",2,"baseline","baseline",3,14,0,"20130708T171657",17.8,1.2,11,0,19.06,19.97,32,1,41,"19   7  15",-1,23.2,"7/8/13","8/20/00",12.88158795,"F","",0,0,1
"27",2,"baseline","baseline",3,15,0,"20130708T171657",15.8,1.2,10,1,6.92,7.75,34,1,34,"11   7  16",-1,10.7,"7/8/13","8/20/00",12.88158795,"F","",0,0,1
"28",2,"baseline","baseline",3,16,0,"20130708T171657",17.8,1.2,11,1,3.58,4.46,34,1,34,"19   1  14",-1,7.45,"7/8/13","8/20/00",12.88158795,"F","",0,0,1
"44",2,"baseline","baseline",3,5,0,"20130708T171657",2.3,1.2,2,1,2.19,2.59,4,1,4,"1  1  2",-1,5.21,"7/8/13","8/20/00",12.88158795,"F","",0,0,1
"45",2,"baseline","baseline",3,6,0,"20130708T171657",3.74,1.2,3,1,2.44,2.88,9,1,9,"1  5  3",-1,5.69,"7/8/13","8/20/00",12.88158795,"F","",0,0,1
"46",2,"baseline","baseline",3,7,0,"20130708T171657",5.28,1.2,4,1,2.22,2.69,9,1,9,"1  6  2",-1,5.35,"7/8/13","8/20/00",12.88158795,"F","",0,0,1
"113",2,"baseline","baseline",3,33,0,"20130708T171657",23.7,1.2,14,1,17.06,17.99,42,1,42,"23  18   1",-1,20.9,"7/8/13","8/20/00",12.88158795,"F","",0,0,1
"119",2,"baseline","baseline",3,25,0,"20130708T171657",19.7,1.2,12,0,16.49,17.28,46,1,53,"18  19  16",-1,20.4,"7/8/13","8/20/00",12.88158795,"F","",0,0,1
"120",2,"baseline","baseline",3,26,0,"20130708T171657",17.8,1.2,11,1,2.9,3.97,26,1,26,"1   6  19",-1,6.88,"7/8/13","8/20/00",12.88158795,"F","",0,0,1
"121",2,"baseline","baseline",3,27,0,"20130708T171657",19.7,1.2,12,1,2.67,3.57,26,1,26,"6  19   1",-1,6.39,"7/8/13","8/20/00",12.88158795,"F","",0,0,1
"122",2,"baseline","baseline",3,28,0,"20130708T171657",21.7,1.2,13,1,5.27,6.46,50,1,50,"5  23  22",-1,9.5,"7/8/13","8/20/00",12.88158795,"F","",0,0,1
"126",2,"baseline","baseline",3,19,0,"20130708T171657",19.7,1.2,12,0,9.25,10.14,41,1,31,"5  21   5",-1,13.2,"7/8/13","8/20/00",12.88158795,"F","",0,0,1
"127",2,"baseline","baseline",3,20,0,"20130708T171657",17.8,1.2,11,0,17.15,18.28,49,1,47,"13  17  17",-1,21.5,"7/8/13","8/20/00",12.88158795,"F","",0,0,1
"131",2,"baseline","baseline",3,24,0,"20130708T171657",21.7,1.2,13,0,11.61,12.62,40,1,50,"12  21  17",-1,15.7,"7/8/13","8/20/00",12.88158795,"F","",0,0,1
"132",2,"baseline","baseline",3,29,0,"20130708T171657",23.7,1.2,14,1,3.6,4.77,30,1,30,"2   4  24",-1,7.68,"7/8/13","8/20/00",12.88158795,"F","",0,0,1
"133",2,"baseline","baseline",3,30,0,"20130708T171657",25.8,1.2,15,0,9.62,10.82,34,1,44,"26   5  13",-1,14,"7/8/13","8/20/00",12.88158795,"F","",0,0,1
"134",2,"baseline","baseline",3,31,0,"20130708T171657",23.7,1.2,14,1,7.03,8.14,47,1,47,"21   1  25",-1,11.1,"7/8/13","8/20/00",12.88158795,"F","",0,0,1
"135",2,"baseline","baseline",3,32,0,"20130708T171657",25.8,1.2,15,0,25.06,25.92,66,1,63,"26  13  24",-1,29.1,"7/8/13","8/20/00",12.88158795,"F","",0,0,1
"137",2,"baseline","baseline",3,21,0,"20130708T171657",15.8,1.2,10,1,6.6,7.55,31,1,31,"15   2  14",-1,10.5,"7/8/13","8/20/00",12.88158795,"F","",0,0,1
"138",2,"baseline","baseline",3,22,0,"20130708T171657",17.8,1.2,11,1,10.7,11.73,37,1,37,"18   3  16",-1,14.7,"7/8/13","8/20/00",12.88158795,"F","",0,0,1
"139",2,"baseline","baseline",3,23,0,"20130708T171657",19.7,1.2,12,1,5.37,6.46,41,1,41,"15   5  21",-1,9.58,"7/8/13","8/20/00",12.88158795,"F","",0,0,1
"1",2,"blindfold","blindfold",4,13,0,"20130708T172900",14,1.2,9,1,12.54,13.4,29,1,29,"11   3  15",-1,16.6,"7/8/13","8/20/00",12.88158795,"F","",0,0,1
"2",2,"blindfold","blindfold",4,14,0,"20130708T172900",15.8,1.2,10,1,18.66,19.47,26,1,26,"17   8   1",-1,22.3,"7/8/13","8/20/00",12.88158795,"F","",0,0,1
"4",2,"blindfold","blindfold",4,17,0,"20130708T172900",21.7,1.2,13,1,2.81,3.76,41,1,41,"15  21   5",-1,6.91,"7/8/13","8/20/00",12.88158795,"F","",0,0,1
"5",2,"blindfold","blindfold",4,15,0,"20130708T172900",17.8,1.2,11,1,16.13,16.79,44,1,44,"17  18   9",-1,19.8,"7/8/13","8/20/00",12.88158795,"F","",0,0,1
"6",2,"blindfold","blindfold",4,16,0,"20130708T172900",19.7,1.2,12,1,7.67,8.64,35,1,35,"19  10   6",-1,11.5,"7/8/13","8/20/00",12.88158795,"F","",0,0,1
"7",2,"blindfold","blindfold",4,7,0,"20130708T172900",6.9,1.2,5,1,3.84,4.66,13,1,13,"5  6  2",-1,7.37,"7/8/13","8/20/00",12.88158795,"F","",0,0,1
"8",2,"blindfold","blindfold",4,8,0,"20130708T172900",8.59,1.2,6,1,2.03,2.95,19,1,19,"4  10   5",-1,6.04,"7/8/13","8/20/00",12.88158795,"F","",0,0,1
"9",2,"blindfold","blindfold",4,9,0,"20130708T172900",10.3,1.2,7,1,3.59,4.68,20,1,20,"9  6  5",-1,8.26,"7/8/13","8/20/00",12.88158795,"F","",0,0,1
"10",2,"blindfold","blindfold",4,10,0,"20130708T172900",12.1,1.2,8,1,4.73,5.79,27,1,27,"12   4  11",-1,9.3,"7/8/13","8/20/00",12.88158795,"F","",0,0,1
"11",2,"blindfold","blindfold",4,11,0,"20130708T172900",14,1.2,9,1,9.12,9.9,32,1,32,"9  13  10",-1,14,"7/8/13","8/20/00",12.88158795,"F","",0,0,1
"12",2,"blindfold","blindfold",4,12,0,"20130708T172900",15.8,1.2,10,0,18.63,19.59,23,1,33,"15   1  17",-1,23.5,"7/8/13","8/20/00",12.88158795,"F","",0,0,1
"18",2,"blindfold","blindfold",4,18,0,"20130708T172900",23.7,1.2,14,1,6.22,6.95,55,1,55,"23  20  12",-1,9.84,"7/8/13","8/20/00",12.88158795,"F","",0,0,1
"19",2,"blindfold","blindfold",4,6,0,"20130708T172900",5.28,1.2,4,1,2.71,3.47,14,1,14,"4  6  4",-1,6.4,"7/8/13","8/20/00",12.88158795,"F","",0,0,1
"32",2,"blindfold","blindfold",4,4,0,"20130708T172900",2.3,1.2,2,1,2.01,2.39,7,1,7,"2  2  3",-1,5.01,"7/8/13","8/20/00",12.88158795,"F","",0,0,1
"33",2,"blindfold","blindfold",4,5,0,"20130708T172900",3.74,1.2,3,1,3.27,4.17,11,1,11,"4  4  3",-1,7.01,"7/8/13","8/20/00",12.88158795,"F","",0,0,1
"47",2,"blindfold","blindfold",4,19,0,"20130708T172900",25.8,1.2,15,1,7.55,8.75,58,1,58,"25  26   7",-1,11.9,"7/8/13","8/20/00",12.88158795,"F","",0,0,1
"48",2,"blindfold","blindfold",4,20,0,"20130708T172900",27.9,1.2,16,0,9.94,10.82,52,1,62,"14  27  21",-1,14,"7/8/13","8/20/00",12.88158795,"F","",0,0,1
"49",2,"blindfold","blindfold",4,21,0,"20130708T172900",25.8,1.2,15,1,3.27,3.97,48,1,48,"3  25  20",-1,6.88,"7/8/13","8/20/00",12.88158795,"F","",0,0,1
"50",2,"blindfold","blindfold",4,22,0,"20130708T172900",27.9,1.2,16,1,6.12,7.15,38,1,38,"27   9   2",-1,9.9,"7/8/13","8/20/00",12.88158795,"F","",0,0,1
"51",2,"blindfold","blindfold",4,23,0,"20130708T172900",30,1.2,17,0,13.27,14.11,62,1,52,"30   5  17",-1,17.2,"7/8/13","8/20/00",12.88158795,"F","",0,0,1
"52",2,"blindfold","blindfold",4,24,0,"20130708T172900",27.9,1.2,16,0,26.24,27.41,79,1,67,"26  28  13",-1,30.5,"7/8/13","8/20/00",12.88158795,"F","",0,0,1
"53",2,"blindfold","blindfold",4,25,0,"20130708T172900",25.8,1.2,15,1,14.1,15.01,73,1,73,"26  24  23",-1,18.2,"7/8/13","8/20/00",12.88158795,"F","",0,0,1
"54",2,"blindfold","blindfold",4,26,0,"20130708T172900",27.9,1.2,16,0,11.78,12.72,55,1,54,"10  29  15",-1,15.7,"7/8/13","8/20/00",12.88158795,"F","",0,0,1
"55",2,"blindfold","blindfold",4,27,0,"20130708T172900",25.8,1.2,15,0,23.12,24.24,49,1,46,"13  27   6",-1,27.3,"7/8/13","8/20/00",12.88158795,"F","",0,0,1
"56",2,"blindfold","blindfold",4,28,0,"20130708T172900",23.7,1.2,14,1,7.23,8.25,51,1,51,"22  25   4",-1,11.3,"7/8/13","8/20/00",12.88158795,"F","",0,0,1
"57",2,"blindfold","blindfold",4,29,0,"20130708T172900",25.8,1.2,15,1,12.8,13.7,43,1,43,"8  25  10",-1,16.5,"7/8/13","8/20/00",12.88158795,"F","",0,0,1
"58",2,"blindfold","blindfold",4,30,0,"20130708T172900",27.9,1.2,16,0,12.18,12.92,42,1,52,"7  27  18",-1,16,"7/8/13","8/20/00",12.88158795,"F","",0,0,1
"59",2,"blindfold","blindfold",4,31,0,"20130708T172900",25.8,1.2,15,1,8.71,9.73,41,1,41,"10  26   5",-1,12.7,"7/8/13","8/20/00",12.88158795,"F","",0,0,1
"60",2,"blindfold","blindfold",4,32,0,"20130708T172900",27.9,1.2,16,0,10.62,11.62,38,1,39,"28   7   4",-1,14.5,"7/8/13","8/20/00",12.88158795,"F","",0,0,1
"73",2,"stillhands","stillhands",1,27,0,"20130708T165218",21.7,1.2,13,1,18.14,18.97,51,1,51,"21  10  20",-1,21.9,"7/8/13","8/20/00",12.88158795,"F","",0,0,1
"74",2,"stillhands","stillhands",1,28,0,"20130708T165218",23.7,1.2,14,0,18.31,19.27,59,1,54,"21   9  24",-1,22.4,"7/8/13","8/20/00",12.88158795,"F","",0,0,1
"75",2,"stillhands","stillhands",1,29,0,"20130708T165218",21.7,1.2,13,0,10.8,11.91,50,1,40,"23  10   7",-1,14.8,"7/8/13","8/20/00",12.88158795,"F","",0,0,1
"76",2,"stillhands","stillhands",1,30,0,"20130708T165218",19.7,1.2,12,0,6.24,7.17,25,1,35,"12   3  20",-1,10,"7/8/13","8/20/00",12.88158795,"F","",0,0,1
"77",2,"stillhands","stillhands",1,31,0,"20130708T165218",17.8,1.2,11,1,6.44,7.34,30,1,30,"7   5  18",-1,10.3,"7/8/13","8/20/00",12.88158795,"F","",0,0,1
"78",2,"stillhands","stillhands",1,32,0,"20130708T165218",19.7,1.2,12,1,10.18,11.13,49,1,49,"13  15  21",-1,14.3,"7/8/13","8/20/00",12.88158795,"F","",0,0,1
"80",2,"stillhands","stillhands",1,7,0,"20130708T165218",6.9,1.2,5,1,4.29,5.16,16,1,16,"8  2  6",-1,7.98,"7/8/13","8/20/00",12.88158795,"F","",0,0,1
"81",2,"stillhands","stillhands",1,8,0,"20130708T165218",8.59,1.2,6,1,5.24,6.06,18,1,18,"1  8  9",-1,8.87,"7/8/13","8/20/00",12.88158795,"F","",0,0,1
"82",2,"stillhands","stillhands",1,9,0,"20130708T165218",10.3,1.2,7,1,2.78,3.57,18,1,18,"10   4   4",-1,6.49,"7/8/13","8/20/00",12.88158795,"F","",0,0,1
"83",2,"stillhands","stillhands",1,10,0,"20130708T165218",12.1,1.2,8,1,6.18,7.04,24,1,24,"12   1  11",-1,10,"7/8/13","8/20/00",12.88158795,"F","",0,0,1
"90",2,"stillhands","stillhands",1,4,0,"20130708T165218",2.3,1.2,2,1,3.83,4.38,7,1,7,"2  2  3",-1,7.13,"7/8/13","8/20/00",12.88158795,"F","",0,0,1
"91",2,"stillhands","stillhands",1,5,0,"20130708T165218",3.74,1.2,3,1,2.13,2.79,8,1,8,"4  2  2",-1,5.48,"7/8/13","8/20/00",12.88158795,"F","",0,0,1
"92",2,"stillhands","stillhands",1,6,0,"20130708T165218",5.28,1.2,4,1,1.92,2.78,11,1,11,"4  6  1",-1,5.68,"7/8/13","8/20/00",12.88158795,"F","",0,0,1
"93",2,"stillhands","stillhands",1,20,0,"20130708T165218",23.7,1.2,14,0,30,30.1,-1,1,47,"16  25   6",-1,33.2,"7/8/13","8/20/00",12.88158795,"F","",0,0,1
"94",2,"stillhands","stillhands",1,21,0,"20130708T165218",21.7,1.2,13,0,30,30.1,-1,1,44,"13  23   8",-1,33.1,"7/8/13","8/20/00",12.88158795,"F","",0,0,1
"95",2,"stillhands","stillhands",1,22,0,"20130708T165218",19.7,1.2,12,1,9.37,10.23,43,1,43,"16  20   7",-1,13.3,"7/8/13","8/20/00",12.88158795,"F","",0,0,1
"96",2,"stillhands","stillhands",1,23,0,"20130708T165218",21.7,1.2,13,1,18.52,19.47,42,1,42,"21   6  15",-1,22.6,"7/8/13","8/20/00",12.88158795,"F","",0,0,1
"97",2,"stillhands","stillhands",1,11,0,"20130708T165218",14,1.2,9,1,7.89,8.84,30,1,30,"10   6  14",-1,12.1,"7/8/13","8/20/00",12.88158795,"F","",0,0,1
"98",2,"stillhands","stillhands",1,12,0,"20130708T165218",15.8,1.2,10,1,6.99,7.75,32,1,32,"14   3  15",-1,11.1,"7/8/13","8/20/00",12.88158795,"F","",0,0,1
"99",2,"stillhands","stillhands",1,13,0,"20130708T165218",17.8,1.2,11,1,11.07,12,40,1,40,"6  18  16",-1,15.2,"7/8/13","8/20/00",12.88158795,"F","",0,0,1
"100",2,"stillhands","stillhands",1,14,0,"20130708T165218",19.7,1.2,12,0,16.74,17.78,42,1,43,"16   8  19",-1,20.8,"7/8/13","8/20/00",12.88158795,"F","",0,0,1
"101",2,"stillhands","stillhands",1,15,0,"20130708T165218",17.8,1.2,11,0,17.09,17.99,45,1,46,"18   9  19",-1,21,"7/8/13","8/20/00",12.88158795,"F","",0,0,1
"102",2,"stillhands","stillhands",1,16,0,"20130708T165218",15.8,1.2,10,1,6.59,7.54,28,1,28,"1  16  11",-1,10.4,"7/8/13","8/20/00",12.88158795,"F","",0,0,1
"103",2,"stillhands","stillhands",1,17,0,"20130708T165218",17.8,1.2,11,1,16.27,17.2,45,1,45,"18  16  11",-1,20.2,"7/8/13","8/20/00",12.88158795,"F","",0,0,1
"104",2,"stillhands","stillhands",1,18,0,"20130708T165218",19.7,1.2,12,1,3.83,4.76,45,1,45,"21  20   4",-1,7.85,"7/8/13","8/20/00",12.88158795,"F","",0,0,1
"105",2,"stillhands","stillhands",1,19,0,"20130708T165218",21.7,1.2,13,1,8.32,9.23,39,1,39,"6  23  10",-1,12.2,"7/8/13","8/20/00",12.88158795,"F","",0,0,1
"110",2,"stillhands","stillhands",1,24,0,"20130708T165218",23.7,1.2,14,1,4.76,5.76,35,1,35,"24   5   6",-1,8.85,"7/8/13","8/20/00",12.88158795,"F","",0,0,1
"111",2,"stillhands","stillhands",1,25,0,"20130708T165218",25.8,1.2,15,0,17.3,18.27,47,1,49,"6  27  16",-1,21.4,"7/8/13","8/20/00",12.88158795,"F","",0,0,1
"112",2,"stillhands","stillhands",1,26,0,"20130708T165218",23.7,1.2,14,0,19.9,20.85,43,1,58,"25  17  16",-1,24.1,"7/8/13","8/20/00",12.88158795,"F","",0,0,1
"37",2,"interference","interference",2,4,1,"20130708T170531",2.3,1.2,2,1,0.48,0.92,4,1,4,"1  1  2",94,7.45,"7/8/13","8/20/00",12.88158795,"F","",0,0,1
"38",2,"interference","interference",2,5,1,"20130708T170531",3.74,1.2,3,1,1.03,1.61,11,1,11,"3  5  3",98,8.32,"7/8/13","8/20/00",12.88158795,"F","",0,0,1
"39",2,"interference","interference",2,6,1,"20130708T170531",5.28,1.2,4,1,0.87,1.61,10,1,10,"1  5  4",98,8.28,"7/8/13","8/20/00",12.88158795,"F","",0,0,1
"40",2,"interference","interference",2,7,1,"20130708T170531",6.9,1.2,5,1,0.96,1.72,12,1,12,"4  2  6",100,8.29,"7/8/13","8/20/00",12.88158795,"F","",0,0,1
"41",2,"interference","interference",2,8,1,"20130708T170531",8.59,1.2,6,1,0.76,1.72,18,1,18,"8  2  8",101,8.13,"7/8/13","8/20/00",12.88158795,"F","",0,0,1
"42",2,"interference","interference",2,9,1,"20130708T170531",10.3,1.2,7,1,4.69,5.4,26,1,26,"8  9  9",101,12,"7/8/13","8/20/00",12.88158795,"F","",0,0,1
"43",2,"interference","interference",2,10,1,"20130708T170531",12.1,1.2,8,1,1.04,1.72,15,1,15,"11   2   2",98,8.24,"7/8/13","8/20/00",12.88158795,"F","",0,0,1
"63",2,"interference","interference",2,30,1,"20130708T170531",23.7,1.2,14,0,3.03,3.91,47,1,67,"24  21  22",95,10.9,"7/8/13","8/20/00",12.88158795,"F","",0,0,1
"64",2,"interference","interference",2,31,1,"20130708T170531",21.7,1.2,13,0,7.21,8.09,35,1,41,"14   4  23",100,15,"7/8/13","8/20/00",12.88158795,"F","",0,0,1
"65",2,"interference","interference",2,32,1,"20130708T170531",19.7,1.2,12,0,5.97,6.69,43,1,44,"17  19   8",97,13.7,"7/8/13","8/20/00",12.88158795,"F","",0,0,1
"84",2,"interference","interference",2,11,1,"20130708T170531",14,1.2,9,1,1.05,2.01,29,1,29,"11   4  14",98,8.76,"7/8/13","8/20/00",12.88158795,"F","",0,0,1
"85",2,"interference","interference",2,12,1,"20130708T170531",15.8,1.2,10,0,7.96,8.87,27,1,37,"17  12   8",100,15.7,"7/8/13","8/20/00",12.88158795,"F","",0,0,1
"86",2,"interference","interference",2,13,1,"20130708T170531",14,1.2,9,1,2,2.71,28,1,28,"14   2  12",98,9.41,"7/8/13","8/20/00",12.88158795,"F","",0,0,1
"106",2,"interference","interference",2,18,1,"20130708T170531",15.8,1.2,10,0,9.79,10.66,37,1,39,"8  14  17",99,17.4,"7/8/13","8/20/00",12.88158795,"F","",0,0,1
"107",2,"interference","interference",2,19,1,"20130708T170531",14,1.2,9,1,0.68,1.43,23,1,23,"6   4  13",100,8.21,"7/8/13","8/20/00",12.88158795,"F","",0,0,1
"108",2,"interference","interference",2,20,1,"20130708T170531",15.8,1.2,10,0,7.99,8.78,48,1,38,"13  15  10",98,15.7,"7/8/13","8/20/00",12.88158795,"F","",0,0,1
"109",2,"interference","interference",2,21,1,"20130708T170531",14,1.2,9,1,0.9,1.72,24,1,24,"14   9   1",97,8.57,"7/8/13","8/20/00",12.88158795,"F","",0,0,1
"118",2,"interference","interference",2,17,1,"20130708T170531",17.8,1.2,11,0,6.14,6.98,24,1,35,"14   4  17",89,13.9,"7/8/13","8/20/00",12.88158795,"F","",0,0,1
"123",2,"interference","interference",2,22,1,"20130708T170531",15.8,1.2,10,1,0.53,1.23,21,1,21,"3  15   3",98,8.03,"7/8/13","8/20/00",12.88158795,"F","",0,0,1
"124",2,"interference","interference",2,23,1,"20130708T170531",17.8,1.2,11,1,3.44,4.4,27,1,27,"2   6  19",97,11,"7/8/13","8/20/00",12.88158795,"F","",0,0,1
"125",2,"interference","interference",2,24,1,"20130708T170531",19.7,1.2,12,0,4.35,5.1,33,1,43,"21  18   4",93,12,"7/8/13","8/20/00",12.88158795,"F","",0,0,1
"128",2,"interference","interference",2,14,1,"20130708T170531",15.8,1.2,10,0,1.81,2.62,19,1,29,"8  16   5",99,9.34,"7/8/13","8/20/00",12.88158795,"F","",0,0,1
"129",2,"interference","interference",2,15,1,"20130708T170531",14,1.2,9,1,7.29,8.08,24,1,24,"5   4  15",101,14.9,"7/8/13","8/20/00",12.88158795,"F","",0,0,1
"130",2,"interference","interference",2,16,1,"20130708T170531",15.8,1.2,10,1,1.57,2.42,24,1,24,"5   3  16",100,9.12,"7/8/13","8/20/00",12.88158795,"F","",0,0,1
"136",2,"interference","interference",2,25,1,"20130708T170531",17.8,1.2,11,0,16.93,17.63,45,1,46,"9  18  19",98,24.4,"7/8/13","8/20/00",12.88158795,"F","",0,0,1
"140",2,"interference","interference",2,29,1,"20130708T170531",21.7,1.2,13,1,0.84,1.61,47,1,47,"23  22   2",94,8.55,"7/8/13","8/20/00",12.88158795,"F","",0,0,1
"141",2,"interference","interference",2,26,1,"20130708T170531",15.8,1.2,10,1,2.69,3.51,40,1,40,"15  17   8",98,10.5,"7/8/13","8/20/00",12.88158795,"F","",0,0,1
"142",2,"interference","interference",2,27,1,"20130708T170531",17.8,1.2,11,1,8.23,9.17,37,1,37,"13   5  19",96,16,"7/8/13","8/20/00",12.88158795,"F","",0,0,1
"143",2,"interference","interference",2,28,1,"20130708T170531",19.7,1.2,12,1,3.72,4.4,43,1,43,"19  19   5",97,11.3,"7/8/13","8/20/00",12.88158795,"F","",0,0,1
"161",3,"baseline","baseline",4,4,0,"20130709T103327",2.3,1.2,2,1,3.93,4.37,4,1,4,"1  2  1",-1,7.14,"7/9/13","6/5/01",12.09308693,"M","no",0,1,2
"162",3,"baseline","baseline",4,5,0,"20130709T103327",3.74,1.2,3,0,7.62,8.65,14,1,13,"4  4  5",-1,11.6,"7/9/13","6/5/01",12.09308693,"M","no",0,1,2
"163",3,"baseline","baseline",4,6,0,"20130709T103327",2.3,1.2,2,1,8.09,8.94,7,1,7,"2  3  2",-1,11.6,"7/9/13","6/5/01",12.09308693,"M","no",0,1,2
"164",3,"baseline","baseline",4,7,0,"20130709T103327",3.74,1.2,3,1,6.98,7.84,12,1,12,"4  3  5",-1,10.8,"7/9/13","6/5/01",12.09308693,"M","no",0,1,2
"165",3,"baseline","baseline",4,8,0,"20130709T103327",5.28,1.2,4,1,5.74,6.55,13,1,13,"5  6  2",-1,9.66,"7/9/13","6/5/01",12.09308693,"M","no",0,1,2
"179",3,"baseline","baseline",4,9,0,"20130709T103327",6.9,1.2,5,1,6.86,7.75,15,1,15,"4  5  6",-1,11,"7/9/13","6/5/01",12.09308693,"M","no",0,1,2
"180",3,"baseline","baseline",4,10,0,"20130709T103327",8.59,1.2,6,1,4.69,5.46,20,1,20,"4  9  7",-1,8.77,"7/9/13","6/5/01",12.09308693,"M","no",0,1,2
"237",3,"baseline","baseline",4,11,0,"20130709T103327",10.3,1.2,7,1,3.27,4.17,18,1,18,"2  10   6",-1,6.9,"7/9/13","6/5/01",12.09308693,"M","no",0,1,2
"238",3,"baseline","baseline",4,12,0,"20130709T103327",12.1,1.2,8,0,6,6.75,27,1,29,"13   8   8",-1,9.59,"7/9/13","6/5/01",12.09308693,"M","no",0,1,2
"239",3,"baseline","baseline",4,13,0,"20130709T103327",10.3,1.2,7,1,9.12,10.02,22,1,22,"8  5  9",-1,12.9,"7/9/13","6/5/01",12.09308693,"M","no",0,1,2
"240",3,"baseline","baseline",4,14,0,"20130709T103327",12.1,1.2,8,1,6.79,7.55,26,1,26,"13   7   6",-1,10.5,"7/9/13","6/5/01",12.09308693,"M","no",0,1,2
"241",3,"baseline","baseline",4,15,0,"20130709T103327",14,1.2,9,0,17.99,19.16,39,1,29,"8  15   6",-1,22.1,"7/9/13","6/5/01",12.09308693,"M","no",0,1,2
"242",3,"baseline","baseline",4,16,0,"20130709T103327",12.1,1.2,8,1,4.8,5.56,32,1,32,"7  12  13",-1,8.54,"7/9/13","6/5/01",12.09308693,"M","no",0,1,2
"243",3,"baseline","baseline",4,17,0,"20130709T103327",14,1.2,9,1,11.88,12.71,25,1,25,"6   4  15",-1,15.8,"7/9/13","6/5/01",12.09308693,"M","no",0,1,2
"244",3,"baseline","baseline",4,18,0,"20130709T103327",15.8,1.2,10,0,6.46,7.44,30,1,32,"1  16  15",-1,10.5,"7/9/13","6/5/01",12.09308693,"M","no",0,1,2
"245",3,"baseline","baseline",4,19,0,"20130709T103327",14,1.2,9,1,5.89,6.56,34,1,34,"13  13   8",-1,9.46,"7/9/13","6/5/01",12.09308693,"M","no",0,1,2
"246",3,"baseline","baseline",4,20,0,"20130709T103327",15.8,1.2,10,1,6.96,7.84,20,1,20,"15   3   2",-1,10.6,"7/9/13","6/5/01",12.09308693,"M","no",0,1,2
"263",3,"baseline","baseline",4,23,0,"20130709T103327",17.8,1.2,11,1,9.73,10.71,30,1,30,"4  18   8",-1,13.6,"7/9/13","6/5/01",12.09308693,"M","no",0,1,2
"275",3,"baseline","baseline",4,22,0,"20130709T103327",15.8,1.2,10,1,5.19,6.36,34,1,34,"4  15  15",-1,9.53,"7/9/13","6/5/01",12.09308693,"M","no",0,1,2
"276",3,"baseline","baseline",4,27,0,"20130709T103327",25.8,1.2,15,1,11.53,12.22,61,1,61,"25  12  24",-1,15.3,"7/9/13","6/5/01",12.09308693,"M","no",0,1,2
"277",3,"baseline","baseline",4,24,0,"20130709T103327",19.7,1.2,12,1,12.01,12.72,41,1,41,"19  18   4",-1,15.8,"7/9/13","6/5/01",12.09308693,"M","no",0,1,2
"278",3,"baseline","baseline",4,25,0,"20130709T103327",21.7,1.2,13,1,14.38,15,40,1,40,"8  23   9",-1,17.9,"7/9/13","6/5/01",12.09308693,"M","no",0,1,2
"279",3,"baseline","baseline",4,26,0,"20130709T103327",23.7,1.2,14,1,5.4,6.16,43,1,43,"23   6  14",-1,9.3,"7/9/13","6/5/01",12.09308693,"M","no",0,1,2
"280",3,"baseline","baseline",4,31,0,"20130709T103327",34.2,1.2,19,1,10.31,11.32,82,1,82,"35  15  32",-1,14.6,"7/9/13","6/5/01",12.09308693,"M","no",0,1,2
"281",3,"baseline","baseline",4,28,0,"20130709T103327",27.9,1.2,16,1,10.77,11.63,62,1,62,"29  10  23",-1,14.6,"7/9/13","6/5/01",12.09308693,"M","no",0,1,2
"282",3,"baseline","baseline",4,29,0,"20130709T103327",30,1.2,17,1,10.08,10.83,77,1,77,"30  27  20",-1,13.7,"7/9/13","6/5/01",12.09308693,"M","no",0,1,2
"283",3,"baseline","baseline",4,30,0,"20130709T103327",32.1,1.2,18,1,10.62,11.43,85,1,85,"28  25  32",-1,14.5,"7/9/13","6/5/01",12.09308693,"M","no",0,1,2
"285",3,"baseline","baseline",4,32,0,"20130709T103327",36.4,1.2,20,1,16.47,17.38,60,1,60,"15   8  37",-1,20.5,"7/9/13","6/5/01",12.09308693,"M","no",0,1,2
"287",3,"baseline","baseline",4,21,0,"20130709T103327",17.8,1.2,11,0,17.06,18.09,54,1,53,"18  18  17",-1,21.3,"7/9/13","6/5/01",12.09308693,"M","no",0,1,2
"144",3,"blindfold","blindfold",3,19,0,"20130709T102308",21.7,1.2,13,1,9.97,10.82,44,1,44,"19   2  23",-1,13.8,"7/9/13","6/5/01",12.09308693,"M","no",0,1,2
"145",3,"blindfold","blindfold",3,17,0,"20130709T102308",17.8,1.2,11,1,10.05,10.53,48,1,48,"17  13  18",-1,13.7,"7/9/13","6/5/01",12.09308693,"M","no",0,1,2
"146",3,"blindfold","blindfold",3,20,0,"20130709T102308",23.7,1.2,14,1,15.15,15.9,32,1,32,"3   4  25",-1,18.9,"7/9/13","6/5/01",12.09308693,"M","no",0,1,2
"147",3,"blindfold","blindfold",3,21,0,"20130709T102308",25.8,1.2,15,1,11.24,12.01,58,1,58,"19  13  26",-1,15.2,"7/9/13","6/5/01",12.09308693,"M","no",0,1,2
"148",3,"blindfold","blindfold",3,18,0,"20130709T102308",19.7,1.2,12,1,9.68,10.62,46,1,46,"20  12  14",-1,13.6,"7/9/13","6/5/01",12.09308693,"M","no",0,1,2
"157",3,"blindfold","blindfold",3,16,0,"20130709T102308",19.7,1.2,12,0,16.72,17.67,43,1,52,"21  17  14",-1,21,"7/9/13","6/5/01",12.09308693,"M","no",0,1,2
"166",3,"blindfold","blindfold",3,11,0,"20130709T102308",14,1.2,9,0,5.49,6.36,45,1,35,"7  14  14",-1,9.89,"7/9/13","6/5/01",12.09308693,"M","no",0,1,2
"167",3,"blindfold","blindfold",3,12,0,"20130709T102308",12.1,1.2,8,1,3.66,4.37,17,1,17,"1   4  12",-1,7.45,"7/9/13","6/5/01",12.09308693,"M","no",0,1,2
"168",3,"blindfold","blindfold",3,13,0,"20130709T102308",14,1.2,9,1,7.37,8.04,35,1,35,"11  13  11",-1,11.1,"7/9/13","6/5/01",12.09308693,"M","no",0,1,2
"169",3,"blindfold","blindfold",3,14,0,"20130709T102308",15.8,1.2,10,1,21.23,21.96,32,1,32,"1  16  15",-1,25,"7/9/13","6/5/01",12.09308693,"M","no",0,1,2
"170",3,"blindfold","blindfold",3,15,0,"20130709T102308",17.8,1.2,11,1,4.1,4.66,30,1,30,"10  19   1",-1,7.46,"7/9/13","6/5/01",12.09308693,"M","no",0,1,2
"187",3,"blindfold","blindfold",3,4,0,"20130709T102308",2.3,1.2,2,1,2.36,2.87,5,1,5,"1  2  2",-1,5.53,"7/9/13","6/5/01",12.09308693,"M","no",0,1,2
"188",3,"blindfold","blindfold",3,5,0,"20130709T102308",3.74,1.2,3,1,2.19,2.59,8,1,8,"3  3  2",-1,5.3,"7/9/13","6/5/01",12.09308693,"M","no",0,1,2
"189",3,"blindfold","blindfold",3,6,0,"20130709T102308",5.28,1.2,4,1,1.91,2.47,11,1,11,"5  4  2",-1,5.28,"7/9/13","6/5/01",12.09308693,"M","no",0,1,2
"190",3,"blindfold","blindfold",3,7,0,"20130709T102308",6.9,1.2,5,1,4.69,5.26,10,1,10,"1  3  6",-1,8.14,"7/9/13","6/5/01",12.09308693,"M","no",0,1,2
"191",3,"blindfold","blindfold",3,8,0,"20130709T102308",8.59,1.2,6,1,3.11,3.96,18,1,18,"9  6  3",-1,6.84,"7/9/13","6/5/01",12.09308693,"M","no",0,1,2
"192",3,"blindfold","blindfold",3,9,0,"20130709T102308",10.3,1.2,7,1,2.15,2.97,27,1,27,"10  10   7",-1,6.17,"7/9/13","6/5/01",12.09308693,"M","no",0,1,2
"193",3,"blindfold","blindfold",3,10,0,"20130709T102308",12.1,1.2,8,1,5.41,6.36,36,1,36,"11  12  13",-1,9.53,"7/9/13","6/5/01",12.09308693,"M","no",0,1,2
"206",3,"blindfold","blindfold",3,22,0,"20130709T102308",27.9,1.2,16,1,14.31,15.19,59,1,59,"7  27  25",-1,18.3,"7/9/13","6/5/01",12.09308693,"M","no",0,1,2
"207",3,"blindfold","blindfold",3,23,0,"20130709T102308",30,1.2,17,0,7.61,8.34,59,1,58,"17  30  11",-1,11.4,"7/9/13","6/5/01",12.09308693,"M","no",0,1,2
"208",3,"blindfold","blindfold",3,24,0,"20130709T102308",27.9,1.2,16,0,16.38,16.88,52,1,43,"3  12  28",-1,19.7,"7/9/13","6/5/01",12.09308693,"M","no",0,1,2
"209",3,"blindfold","blindfold",3,25,0,"20130709T102308",25.8,1.2,15,1,17.87,18.57,48,1,48,"26  13   9",-1,21.7,"7/9/13","6/5/01",12.09308693,"M","no",0,1,2
"210",3,"blindfold","blindfold",3,26,0,"20130709T102308",27.9,1.2,16,1,17.9,18.97,76,1,76,"27  24  25",-1,22.1,"7/9/13","6/5/01",12.09308693,"M","no",0,1,2
"211",3,"blindfold","blindfold",3,27,0,"20130709T102308",30,1.2,17,0,10.98,11.82,73,1,83,"31  22  30",-1,14.9,"7/9/13","6/5/01",12.09308693,"M","no",0,1,2
"212",3,"blindfold","blindfold",3,28,0,"20130709T102308",27.9,1.2,16,0,14.09,14.91,66,1,46,"2  29  15",-1,17.9,"7/9/13","6/5/01",12.09308693,"M","no",0,1,2
"213",3,"blindfold","blindfold",3,29,0,"20130709T102308",25.8,1.2,15,1,10.27,11.43,57,1,57,"25  24   8",-1,14.4,"7/9/13","6/5/01",12.09308693,"M","no",0,1,2
"214",3,"blindfold","blindfold",3,30,0,"20130709T102308",27.9,1.2,16,1,18.18,19.09,66,1,66,"27  26  13",-1,22.3,"7/9/13","6/5/01",12.09308693,"M","no",0,1,2
"215",3,"blindfold","blindfold",3,31,0,"20130709T102308",30,1.2,17,1,20.33,21.06,64,1,64,"18  15  31",-1,24.2,"7/9/13","6/5/01",12.09308693,"M","no",0,1,2
"216",3,"blindfold","blindfold",3,32,0,"20130709T102308",32.1,1.2,18,1,25.92,26.81,86,1,86,"28  31  27",-1,29.8,"7/9/13","6/5/01",12.09308693,"M","no",0,1,2
"149",3,"stillhands","stillhands",2,4,0,"20130709T101209",2.3,1.2,2,1,1.01,1.39,4,1,4,"1  2  1",-1,4.13,"7/9/13","6/5/01",12.09308693,"M","no",0,1,2
"153",3,"stillhands","stillhands",2,8,0,"20130709T101209",8.59,1.2,6,1,4.04,4.66,20,1,20,"7  10   3",-1,7.52,"7/9/13","6/5/01",12.09308693,"M","no",0,1,2
"154",3,"stillhands","stillhands",2,5,0,"20130709T101209",3.74,1.2,3,1,11.67,12.52,13,1,13,"4  4  5",-1,15.5,"7/9/13","6/5/01",12.09308693,"M","no",0,1,2
"155",3,"stillhands","stillhands",2,6,0,"20130709T101209",5.28,1.2,4,1,1.71,2.27,12,1,12,"2  5  5",-1,5.15,"7/9/13","6/5/01",12.09308693,"M","no",0,1,2
"156",3,"stillhands","stillhands",2,7,0,"20130709T101209",6.9,1.2,5,1,4.42,5.35,15,1,15,"7  5  3",-1,8.24,"7/9/13","6/5/01",12.09308693,"M","no",0,1,2
"171",3,"stillhands","stillhands",2,12,0,"20130709T101209",15.8,1.2,10,1,6.47,7.44,29,1,29,"1  15  13",-1,10.7,"7/9/13","6/5/01",12.09308693,"M","no",0,1,2
"172",3,"stillhands","stillhands",2,13,0,"20130709T101209",17.8,1.2,11,1,15.99,16.89,41,1,41,"18  15   8",-1,19.9,"7/9/13","6/5/01",12.09308693,"M","no",0,1,2
"173",3,"stillhands","stillhands",2,14,0,"20130709T101209",19.7,1.2,12,0,12.3,13.3,40,1,41,"4  18  19",-1,16.4,"7/9/13","6/5/01",12.09308693,"M","no",0,1,2
"174",3,"stillhands","stillhands",2,15,0,"20130709T101209",17.8,1.2,11,1,10.45,11.33,34,1,34,"9  18   7",-1,14.3,"7/9/13","6/5/01",12.09308693,"M","no",0,1,2
"175",3,"stillhands","stillhands",2,16,0,"20130709T101209",19.7,1.2,12,1,6.25,7.15,39,1,39,"19  12   8",-1,9.96,"7/9/13","6/5/01",12.09308693,"M","no",0,1,2
"176",3,"stillhands","stillhands",2,17,0,"20130709T101209",21.7,1.2,13,0,16.07,17.19,56,1,53,"23  14  16",-1,20.4,"7/9/13","6/5/01",12.09308693,"M","no",0,1,2
"177",3,"stillhands","stillhands",2,18,0,"20130709T101209",19.7,1.2,12,1,8.8,9.72,30,1,30,"7   2  21",-1,12.8,"7/9/13","6/5/01",12.09308693,"M","no",0,1,2
"178",3,"stillhands","stillhands",2,19,0,"20130709T101209",21.7,1.2,13,1,8.35,9.34,50,1,50,"22  18  10",-1,12.3,"7/9/13","6/5/01",12.09308693,"M","no",0,1,2
"181",3,"stillhands","stillhands",2,9,0,"20130709T101209",10.3,1.2,7,1,2.39,3.17,17,1,17,"6   1  10",-1,6.2,"7/9/13","6/5/01",12.09308693,"M","no",0,1,2
"182",3,"stillhands","stillhands",2,10,0,"20130709T101209",12.1,1.2,8,1,5.94,6.76,31,1,31,"8  11  12",-1,9.58,"7/9/13","6/5/01",12.09308693,"M","no",0,1,2
"183",3,"stillhands","stillhands",2,11,0,"20130709T101209",14,1.2,9,1,5.35,6.25,29,1,29,"9  14   6",-1,9.59,"7/9/13","6/5/01",12.09308693,"M","no",0,1,2
"249",3,"stillhands","stillhands",2,22,0,"20130709T101209",23.7,1.2,14,1,5.87,6.65,45,1,45,"11  24  10",-1,9.53,"7/9/13","6/5/01",12.09308693,"M","no",0,1,2
"250",3,"stillhands","stillhands",2,23,0,"20130709T101209",25.8,1.2,15,1,6.71,7.44,51,1,51,"5  20  26",-1,10.5,"7/9/13","6/5/01",12.09308693,"M","no",0,1,2
"251",3,"stillhands","stillhands",2,24,0,"20130709T101209",27.9,1.2,16,0,11.11,12.31,62,1,72,"26  28  18",-1,15.4,"7/9/13","6/5/01",12.09308693,"M","no",0,1,2
"252",3,"stillhands","stillhands",2,25,0,"20130709T101209",25.8,1.2,15,1,15.12,16.09,50,1,50,"17   7  26",-1,19.3,"7/9/13","6/5/01",12.09308693,"M","no",0,1,2
"253",3,"stillhands","stillhands",2,26,0,"20130709T101209",27.9,1.2,16,1,10.29,11.42,67,1,67,"27  21  19",-1,14.6,"7/9/13","6/5/01",12.09308693,"M","no",0,1,2
"254",3,"stillhands","stillhands",2,27,0,"20130709T101209",30,1.2,17,1,10.31,11.23,87,1,87,"26  30  31",-1,14.4,"7/9/13","6/5/01",12.09308693,"M","no",0,1,2
"255",3,"stillhands","stillhands",2,28,0,"20130709T101209",32.1,1.2,18,1,6.91,7.65,52,1,52,"32   1  19",-1,10.6,"7/9/13","6/5/01",12.09308693,"M","no",0,1,2
"256",3,"stillhands","stillhands",2,29,0,"20130709T101209",34.2,1.2,19,1,6.11,7.15,70,1,70,"2  34  34",-1,10.1,"7/9/13","6/5/01",12.09308693,"M","no",0,1,2
"257",3,"stillhands","stillhands",2,30,0,"20130709T101209",36.4,1.2,20,0,30,30.1,-1,1,85,"20  28  37",-1,33.2,"7/9/13","6/5/01",12.09308693,"M","no",0,1,2
"258",3,"stillhands","stillhands",2,31,0,"20130709T101209",34.2,1.2,19,0,9.74,10.52,70,1,60,"34  13  13",-1,13.6,"7/9/13","6/5/01",12.09308693,"M","no",0,1,2
"259",3,"stillhands","stillhands",2,32,0,"20130709T101209",32.1,1.2,18,0,9.77,10.41,74,1,64,"33  14  17",-1,13.7,"7/9/13","6/5/01",12.09308693,"M","no",0,1,2
"260",3,"stillhands","stillhands",2,20,0,"20130709T101209",23.7,1.2,14,1,7.65,8.44,47,1,47,"10  13  24",-1,11.5,"7/9/13","6/5/01",12.09308693,"M","no",0,1,2
"261",3,"stillhands","stillhands",2,21,0,"20130709T101209",25.8,1.2,15,0,19.17,20.07,68,1,67,"23  25  19",-1,23.2,"7/9/13","6/5/01",12.09308693,"M","no",0,1,2
"197",3,"interference","interference",1,4,1,"20130709T100140",2.3,1.2,2,1,1.83,2.42,4,1,4,"1  1  2",95,9,"7/9/13","6/5/01",12.09308693,"M","no",0,1,2
"198",3,"interference","interference",1,5,1,"20130709T100140",3.74,1.2,3,1,1.73,2.32,9,1,9,"5  1  3",93,9.02,"7/9/13","6/5/01",12.09308693,"M","no",0,1,2
"199",3,"interference","interference",1,6,1,"20130709T100140",5.28,1.2,4,1,2.09,3.01,15,1,15,"6  5  4",100,9.78,"7/9/13","6/5/01",12.09308693,"M","no",0,1,2
"200",3,"interference","interference",1,7,1,"20130709T100140",6.9,1.2,5,1,2.34,3.01,10,1,10,"1  2  7",98,9.46,"7/9/13","6/5/01",12.09308693,"M","no",0,1,2
"201",3,"interference","interference",1,8,1,"20130709T100140",8.59,1.2,6,1,1.73,2.42,17,1,17,"9  2  6",99,8.97,"7/9/13","6/5/01",12.09308693,"M","no",0,1,2
"202",3,"interference","interference",1,9,1,"20130709T100140",10.3,1.2,7,1,3.1,3.81,19,1,19,"3  9  7",96,10.5,"7/9/13","6/5/01",12.09308693,"M","no",0,1,2
"203",3,"interference","interference",1,10,1,"20130709T100140",12.1,1.2,8,1,1.71,2.51,31,1,31,"11  10  10",99,9.18,"7/9/13","6/5/01",12.09308693,"M","no",0,1,2
"204",3,"interference","interference",1,11,1,"20130709T100140",14,1.2,9,0,5.41,6.09,31,1,21,"6  13   2",99,12.9,"7/9/13","6/5/01",12.09308693,"M","no",0,1,2
"205",3,"interference","interference",1,12,1,"20130709T100140",12.1,1.2,8,1,2.25,2.81,31,1,31,"10   9  12",98,9.46,"7/9/13","6/5/01",12.09308693,"M","no",0,1,2
"218",3,"interference","interference",1,25,1,"20130709T100140",21.7,1.2,13,0,4.4,5.1,36,1,35,"8   4  23",98,11.8,"7/9/13","6/5/01",12.09308693,"M","no",0,1,2
"219",3,"interference","interference",1,26,1,"20130709T100140",19.7,1.2,12,1,1.8,2.51,44,1,44,"11  19  14",102,9.33,"7/9/13","6/5/01",12.09308693,"M","no",0,1,2
"220",3,"interference","interference",1,27,1,"20130709T100140",21.7,1.2,13,0,4.06,4.8,50,1,40,"14  23   3",95,11.8,"7/9/13","6/5/01",12.09308693,"M","no",0,1,2
"221",3,"interference","interference",1,28,1,"20130709T100140",19.7,1.2,12,1,1.89,2.62,41,1,41,"18  21   2",93,9.55,"7/9/13","6/5/01",12.09308693,"M","no",0,1,2
"222",3,"interference","interference",1,29,1,"20130709T100140",21.7,1.2,13,1,1.68,2.72,34,1,34,"23   1  10",86,9.47,"7/9/13","6/5/01",12.09308693,"M","no",0,1,2
"223",3,"interference","interference",1,30,1,"20130709T100140",23.7,1.2,14,0,3.29,3.91,55,1,57,"9  23  25",97,10.8,"7/9/13","6/5/01",12.09308693,"M","no",0,1,2
"224",3,"interference","interference",1,31,1,"20130709T100140",21.7,1.2,13,1,1.96,2.62,63,1,63,"23  20  20",98,9.47,"7/9/13","6/5/01",12.09308693,"M","no",0,1,2
"225",3,"interference","interference",1,32,1,"20130709T100140",23.7,1.2,14,0,2.8,3.81,61,1,51,"23  21   7",101,10.8,"7/9/13","6/5/01",12.09308693,"M","no",0,1,2
"236",3,"interference","interference",1,15,1,"20130709T100140",14,1.2,9,1,1.9,2.81,25,1,25,"6  13   6",98,9.65,"7/9/13","6/5/01",12.09308693,"M","no",0,1,2
"247",3,"interference","interference",1,13,1,"20130709T100140",14,1.2,9,0,3.31,4.01,24,1,23,"13   4   6",90,10.9,"7/9/13","6/5/01",12.09308693,"M","no",0,1,2
"248",3,"interference","interference",1,14,1,"20130709T100140",12.1,1.2,8,1,2.02,2.81,14,1,14,"11   1   2",98,9.43,"7/9/13","6/5/01",12.09308693,"M","no",0,1,2
"264",3,"interference","interference",1,16,1,"20130709T100140",15.8,1.2,10,1,1.82,2.62,31,1,31,"15   7   9",97,9.52,"7/9/13","6/5/01",12.09308693,"M","no",0,1,2
"265",3,"interference","interference",1,17,1,"20130709T100140",17.8,1.2,11,1,3.68,4.5,32,1,32,"8   6  18",98,11.1,"7/9/13","6/5/01",12.09308693,"M","no",0,1,2
"266",3,"interference","interference",1,18,1,"20130709T100140",19.7,1.2,12,1,1.98,2.72,27,1,27,"3   3  21",92,9.33,"7/9/13","6/5/01",12.09308693,"M","no",0,1,2
"267",3,"interference","interference",1,19,1,"20130709T100140",21.7,1.2,13,0,1.94,3.31,68,1,48,"22  20   6",96,10.1,"7/9/13","6/5/01",12.09308693,"M","no",0,1,2
"268",3,"interference","interference",1,20,1,"20130709T100140",19.7,1.2,12,1,3.43,4.11,42,1,42,"4  19  19",96,10.9,"7/9/13","6/5/01",12.09308693,"M","no",0,1,2
"269",3,"interference","interference",1,21,1,"20130709T100140",21.7,1.2,13,1,2.51,3.51,39,1,39,"21  10   8",97,10.3,"7/9/13","6/5/01",12.09308693,"M","no",0,1,2
"270",3,"interference","interference",1,22,1,"20130709T100140",23.7,1.2,14,0,3.56,4.4,50,1,40,"4  11  25",101,11.2,"7/9/13","6/5/01",12.09308693,"M","no",0,1,2
"271",3,"interference","interference",1,23,1,"20130709T100140",21.7,1.2,13,0,3.42,4.21,49,1,51,"22  16  13",97,11.1,"7/9/13","6/5/01",12.09308693,"M","no",0,1,2
"272",3,"interference","interference",1,24,1,"20130709T100140",19.7,1.2,12,1,3.67,4.4,42,1,42,"19  19   4",100,11.3,"7/9/13","6/5/01",12.09308693,"M","no",0,1,2
"318",4,"baseline","baseline",2,4,0,"20130709T141503",2.3,1.2,2,1,1.88,2.18,6,1,6,"3  1  2",-1,4.91,"7/9/13","4/24/01",12.20807666,"F","no",0,0,1
"319",4,"baseline","baseline",2,5,0,"20130709T141503",3.74,1.2,3,1,4.71,5.17,9,1,9,"4  2  3",-1,8.04,"7/9/13","4/24/01",12.20807666,"F","no",0,0,1
"320",4,"baseline","baseline",2,6,0,"20130709T141503",5.28,1.2,4,1,7.09,7.54,12,1,12,"4  5  3",-1,10.4,"7/9/13","4/24/01",12.20807666,"F","no",0,0,1
"321",4,"baseline","baseline",2,7,0,"20130709T141503",6.9,1.2,5,1,5.98,6.46,15,1,15,"5  3  7",-1,9.4,"7/9/13","4/24/01",12.20807666,"F","no",0,0,1
"322",4,"baseline","baseline",2,8,0,"20130709T141503",8.59,1.2,6,0,6.55,6.94,12,1,14,"4  2  8",-1,9.77,"7/9/13","4/24/01",12.20807666,"F","no",0,0,1
"323",4,"baseline","baseline",2,9,0,"20130709T141503",6.9,1.2,5,1,9.32,9.84,13,1,13,"1  7  5",-1,13.2,"7/9/13","4/24/01",12.20807666,"F","no",0,0,1
"324",4,"baseline","baseline",2,10,0,"20130709T141503",8.59,1.2,6,1,17.07,18.17,24,1,24,"7  9  8",-1,21.2,"7/9/13","4/24/01",12.20807666,"F","no",0,0,1
"325",4,"baseline","baseline",2,11,0,"20130709T141503",10.3,1.2,7,1,5.18,5.77,13,1,13,"1   1  11",-1,8.64,"7/9/13","4/24/01",12.20807666,"F","no",0,0,1
"326",4,"baseline","baseline",2,12,0,"20130709T141503",12.1,1.2,8,1,12.94,13.62,24,1,24,"11   1  12",-1,16.5,"7/9/13","4/24/01",12.20807666,"F","no",0,0,1
"368",4,"baseline","baseline",2,13,0,"20130709T141503",14,1.2,9,1,18.02,18.97,37,1,37,"10  13  14",-1,22,"7/9/13","4/24/01",12.20807666,"F","no",0,0,1
"369",4,"baseline","baseline",2,14,0,"20130709T141503",15.8,1.2,10,1,9.31,10.32,43,1,43,"16  11  16",-1,13.4,"7/9/13","4/24/01",12.20807666,"F","no",0,0,1
"370",4,"baseline","baseline",2,15,0,"20130709T141503",17.8,1.2,11,0,21.53,22.35,42,1,41,"19   6  16",-1,25.4,"7/9/13","4/24/01",12.20807666,"F","no",0,0,1
"380",4,"baseline","baseline",2,24,0,"20130709T141503",27.9,1.2,16,1,15.4,16,42,1,42,"29  11   2",-1,18.8,"7/9/13","4/24/01",12.20807666,"F","no",0,0,1
"387",4,"baseline","baseline",2,18,0,"20130709T141503",19.7,1.2,12,0,21.86,22.74,39,1,43,"15   9  19",-1,25.8,"7/9/13","4/24/01",12.20807666,"F","no",0,0,1
"388",4,"baseline","baseline",2,19,0,"20130709T141503",17.8,1.2,11,1,14.23,15,39,1,39,"10  12  17",-1,18.1,"7/9/13","4/24/01",12.20807666,"F","no",0,0,1
"389",4,"baseline","baseline",2,20,0,"20130709T141503",19.7,1.2,12,1,4.37,5.07,31,1,31,"21   1   9",-1,8,"7/9/13","4/24/01",12.20807666,"F","no",0,0,1
"390",4,"baseline","baseline",2,21,0,"20130709T141503",21.7,1.2,13,1,8.68,9.33,46,1,46,"22  20   4",-1,12.4,"7/9/13","4/24/01",12.20807666,"F","no",0,0,1
"391",4,"baseline","baseline",2,22,0,"20130709T141503",23.7,1.2,14,1,11.74,12.52,43,1,43,"9  24  10",-1,15.5,"7/9/13","4/24/01",12.20807666,"F","no",0,0,1
"392",4,"baseline","baseline",2,23,0,"20130709T141503",25.8,1.2,15,1,11.64,12.41,58,1,58,"25  26   7",-1,15.6,"7/9/13","4/24/01",12.20807666,"F","no",0,0,1
"394",4,"baseline","baseline",2,25,0,"20130709T141503",30,1.2,17,1,14.4,15.2,42,1,42,"4  29   9",-1,18.2,"7/9/13","4/24/01",12.20807666,"F","no",0,0,1
"398",4,"baseline","baseline",2,16,0,"20130709T141503",15.8,1.2,10,1,14.84,15.5,31,1,31,"11   5  15",-1,18.5,"7/9/13","4/24/01",12.20807666,"F","no",0,0,1
"399",4,"baseline","baseline",2,17,0,"20130709T141503",17.8,1.2,11,1,15.05,15.68,34,1,34,"17  14   3",-1,18.8,"7/9/13","4/24/01",12.20807666,"F","no",0,0,1
"290",4,"blindfold","blindfold",3,21,0,"20130709T142622",25.8,1.2,15,1,8.55,9.23,46,1,46,"4  26  16",-1,12.4,"7/9/13","4/24/01",12.20807666,"F","no",0,0,1
"291",4,"blindfold","blindfold",3,22,0,"20130709T142622",27.9,1.2,16,1,9.18,9.94,58,1,58,"28  25   5",-1,12.9,"7/9/13","4/24/01",12.20807666,"F","no",0,0,1
"292",4,"blindfold","blindfold",3,20,0,"20130709T142622",27.9,1.2,16,0,20.52,21.25,52,1,66,"26  11  29",-1,24.3,"7/9/13","4/24/01",12.20807666,"F","no",0,0,1
"293",4,"blindfold","blindfold",3,24,0,"20130709T142622",32.1,1.2,18,1,16.23,17.39,73,1,73,"31  18  24",-1,20.5,"7/9/13","4/24/01",12.20807666,"F","no",0,0,1
"294",4,"blindfold","blindfold",3,25,0,"20130709T142622",34.2,1.2,19,0,21.7,22.44,74,1,73,"21  17  35",-1,25.8,"7/9/13","4/24/01",12.20807666,"F","no",0,0,1
"296",4,"blindfold","blindfold",3,23,0,"20130709T142622",30,1.2,17,1,15.08,15.7,51,1,51,"31  11   9",-1,18.7,"7/9/13","4/24/01",12.20807666,"F","no",0,0,1
"301",4,"blindfold","blindfold",3,19,0,"20130709T142622",30,1.2,17,0,30,30.1,-1,1,73,"29  29  15",-1,33.1,"7/9/13","4/24/01",12.20807666,"F","no",0,0,1
"342",4,"blindfold","blindfold",3,4,0,"20130709T142622",2.3,1.2,2,1,7.38,7.74,5,1,5,"1  2  2",-1,10.4,"7/9/13","4/24/01",12.20807666,"F","no",0,0,1
"343",4,"blindfold","blindfold",3,5,0,"20130709T142622",3.74,1.2,3,1,7.45,8.14,13,1,13,"4  4  5",-1,11.2,"7/9/13","4/24/01",12.20807666,"F","no",0,0,1
"344",4,"blindfold","blindfold",3,6,0,"20130709T142622",5.28,1.2,4,1,4.24,4.66,8,1,8,"5  2  1",-1,7.44,"7/9/13","4/24/01",12.20807666,"F","no",0,0,1
"345",4,"blindfold","blindfold",3,7,0,"20130709T142622",6.9,1.2,5,1,6.66,7.25,13,1,13,"3  3  7",-1,10.2,"7/9/13","4/24/01",12.20807666,"F","no",0,0,1
"346",4,"blindfold","blindfold",3,8,0,"20130709T142622",8.59,1.2,6,1,7.93,8.54,18,1,18,"9  5  4",-1,11.8,"7/9/13","4/24/01",12.20807666,"F","no",0,0,1
"347",4,"blindfold","blindfold",3,9,0,"20130709T142622",10.3,1.2,7,1,13.4,14.21,22,1,22,"9  7  6",-1,17.5,"7/9/13","4/24/01",12.20807666,"F","no",0,0,1
"348",4,"blindfold","blindfold",3,10,0,"20130709T142622",12.1,1.2,8,1,20.48,21.26,30,1,30,"9  13   8",-1,24.3,"7/9/13","4/24/01",12.20807666,"F","no",0,0,1
"349",4,"blindfold","blindfold",3,11,0,"20130709T142622",14,1.2,9,1,7.33,7.83,18,1,18,"1  13   4",-1,10.8,"7/9/13","4/24/01",12.20807666,"F","no",0,0,1
"350",4,"blindfold","blindfold",3,12,0,"20130709T142622",15.8,1.2,10,1,15.91,16.69,34,1,34,"13  15   6",-1,19.8,"7/9/13","4/24/01",12.20807666,"F","no",0,0,1
"351",4,"blindfold","blindfold",3,13,0,"20130709T142622",17.8,1.2,11,1,15.52,16.18,47,1,47,"18  18  11",-1,19.2,"7/9/13","4/24/01",12.20807666,"F","no",0,0,1
"352",4,"blindfold","blindfold",3,14,0,"20130709T142622",19.7,1.2,12,1,14.73,15.39,56,1,56,"20  18  18",-1,18.4,"7/9/13","4/24/01",12.20807666,"F","no",0,0,1
"353",4,"blindfold","blindfold",3,15,0,"20130709T142622",21.7,1.2,13,1,21.78,22.56,49,1,49,"22  22   5",-1,25.6,"7/9/13","4/24/01",12.20807666,"F","no",0,0,1
"354",4,"blindfold","blindfold",3,16,0,"20130709T142622",23.7,1.2,14,1,5.1,5.77,35,1,35,"7   3  25",-1,8.74,"7/9/13","4/24/01",12.20807666,"F","no",0,0,1
"355",4,"blindfold","blindfold",3,17,0,"20130709T142622",25.8,1.2,15,1,15.6,16.39,51,1,51,"4  22  25",-1,19.5,"7/9/13","4/24/01",12.20807666,"F","no",0,0,1
"356",4,"blindfold","blindfold",3,18,0,"20130709T142622",27.9,1.2,16,1,23.75,24.54,66,1,66,"27  21  18",-1,27.7,"7/9/13","4/24/01",12.20807666,"F","no",0,0,1
"299",4,"stillhands","stillhands",1,11,0,"20130709T140440",10.3,1.2,7,1,1.82,2.37,21,1,21,"10  10   1",-1,5.26,"7/9/13","4/24/01",12.20807666,"F","no",0,0,1
"305",4,"stillhands","stillhands",1,4,0,"20130709T140440",2.3,1.2,2,1,2.47,2.88,6,1,6,"3  1  2",-1,5.59,"7/9/13","4/24/01",12.20807666,"F","no",0,0,1
"306",4,"stillhands","stillhands",1,5,0,"20130709T140440",3.74,1.2,3,1,2.53,2.88,8,1,8,"3  2  3",-1,5.74,"7/9/13","4/24/01",12.20807666,"F","no",0,0,1
"307",4,"stillhands","stillhands",1,6,0,"20130709T140440",5.28,1.2,4,1,5.75,6.36,11,1,11,"4  4  3",-1,9.3,"7/9/13","4/24/01",12.20807666,"F","no",0,0,1
"308",4,"stillhands","stillhands",1,7,0,"20130709T140440",6.9,1.2,5,0,10.87,11.53,19,1,20,"8  7  5",-1,14.5,"7/9/13","4/24/01",12.20807666,"F","no",0,0,1
"309",4,"stillhands","stillhands",1,8,0,"20130709T140440",5.28,1.2,4,1,5.62,6.35,13,1,13,"5  3  5",-1,9.62,"7/9/13","4/24/01",12.20807666,"F","no",0,0,1
"310",4,"stillhands","stillhands",1,9,0,"20130709T140440",6.9,1.2,5,1,6.64,7.44,18,1,18,"7  4  7",-1,10.7,"7/9/13","4/24/01",12.20807666,"F","no",0,0,1
"311",4,"stillhands","stillhands",1,10,0,"20130709T140440",8.59,1.2,6,1,8.88,9.84,25,1,25,"8  9  8",-1,12.7,"7/9/13","4/24/01",12.20807666,"F","no",0,0,1
"327",4,"stillhands","stillhands",1,12,0,"20130709T140440",12.1,1.2,8,1,5.56,6.24,18,1,18,"11   1   6",-1,9.17,"7/9/13","4/24/01",12.20807666,"F","no",0,0,1
"328",4,"stillhands","stillhands",1,13,0,"20130709T140440",14,1.2,9,1,19.24,19.97,31,1,31,"9   9  13",-1,23,"7/9/13","4/24/01",12.20807666,"F","no",0,0,1
"329",4,"stillhands","stillhands",1,14,0,"20130709T140440",15.8,1.2,10,0,5.65,6.54,19,1,29,"1  16  12",-1,9.47,"7/9/13","4/24/01",12.20807666,"F","no",0,0,1
"367",4,"stillhands","stillhands",1,24,0,"20130709T140440",19.7,1.2,12,1,12.95,13.6,42,1,42,"19  19   4",-1,16.7,"7/9/13","4/24/01",12.20807666,"F","no",0,0,1
"371",4,"stillhands","stillhands",1,15,0,"20130709T140440",14,1.2,9,1,17.74,18.37,28,1,28,"3  11  14",-1,21.4,"7/9/13","4/24/01",12.20807666,"F","no",0,0,1
"372",4,"stillhands","stillhands",1,16,0,"20130709T140440",15.8,1.2,10,1,16.36,17.19,42,1,42,"15  11  16",-1,20.3,"7/9/13","4/24/01",12.20807666,"F","no",0,0,1
"373",4,"stillhands","stillhands",1,17,0,"20130709T140440",17.8,1.2,11,0,19.56,20.37,37,1,38,"7  14  17",-1,23.6,"7/9/13","4/24/01",12.20807666,"F","no",0,0,1
"374",4,"stillhands","stillhands",1,18,0,"20130709T140440",15.8,1.2,10,0,20.76,21.46,38,1,41,"17   8  16",-1,24.5,"7/9/13","4/24/01",12.20807666,"F","no",0,0,1
"375",4,"stillhands","stillhands",1,19,0,"20130709T140440",14,1.2,9,1,28.83,29.51,24,1,24,"13   7   4",-1,32.6,"7/9/13","4/24/01",12.20807666,"F","no",0,0,1
"376",4,"stillhands","stillhands",1,20,0,"20130709T140440",15.8,1.2,10,1,23.77,24.53,29,1,29,"9  16   4",-1,27.6,"7/9/13","4/24/01",12.20807666,"F","no",0,0,1
"377",4,"stillhands","stillhands",1,21,0,"20130709T140440",17.8,1.2,11,1,10.93,11.81,38,1,38,"17  17   4",-1,15.1,"7/9/13","4/24/01",12.20807666,"F","no",0,0,1
"378",4,"stillhands","stillhands",1,22,0,"20130709T140440",19.7,1.2,12,0,9.27,10.04,41,1,31,"19   2  10",-1,12.9,"7/9/13","4/24/01",12.20807666,"F","no",0,0,1
"379",4,"stillhands","stillhands",1,23,0,"20130709T140440",17.8,1.2,11,1,12.36,12.91,46,1,46,"18  18  10",-1,15.9,"7/9/13","4/24/01",12.20807666,"F","no",0,0,1
"395",4,"stillhands","stillhands",1,25,0,"20130709T140440",21.7,1.2,13,0,30,30.1,-1,1,51,"8  22  21",-1,33.2,"7/9/13","4/24/01",12.20807666,"F","no",0,0,1
"298",4,"interference","interference",4,11,1,"20130709T143706",14,1.2,9,1,2.48,3.1,34,1,34,"10  10  14",98,9.69,"7/9/13","4/24/01",12.20807666,"F","no",0,0,1
"302",4,"interference","interference",4,14,1,"20130709T143706",19.7,1.2,12,1,8.99,9.67,48,1,48,"20   9  19",96,16.4,"7/9/13","4/24/01",12.20807666,"F","no",0,0,1
"312",4,"interference","interference",4,24,1,"20130709T143706",27.9,1.2,16,0,30,30.15,66,1,52,"24   1  27",97,36.9,"7/9/13","4/24/01",12.20807666,"F","no",0,0,1
"313",4,"interference","interference",4,12,1,"20130709T143706",15.8,1.2,10,1,20.45,21.31,29,1,29,"4   9  16",100,28,"7/9/13","4/24/01",12.20807666,"F","no",0,0,1
"314",4,"interference","interference",4,13,1,"20130709T143706",17.8,1.2,11,1,22.44,23.29,37,1,37,"1  17  19",97,30.1,"7/9/13","4/24/01",12.20807666,"F","no",0,0,1
"330",4,"interference","interference",4,15,1,"20130709T143706",21.7,1.2,13,1,9.82,10.76,44,1,44,"1  22  21",97,17.5,"7/9/13","4/24/01",12.20807666,"F","no",0,0,1
"331",4,"interference","interference",4,16,1,"20130709T143706",23.7,1.2,14,0,10.4,11.17,53,1,51,"22  25   4",95,18.1,"7/9/13","4/24/01",12.20807666,"F","no",0,0,1
"332",4,"interference","interference",4,17,1,"20130709T143706",21.7,1.2,13,1,13.29,14.14,40,1,40,"21  18   1",95,21,"7/9/13","4/24/01",12.20807666,"F","no",0,0,1
"333",4,"interference","interference",4,18,1,"20130709T143706",23.7,1.2,14,1,20.08,21,46,1,46,"24  18   4",94,27.9,"7/9/13","4/24/01",12.20807666,"F","no",0,0,1
"334",4,"interference","interference",4,19,1,"20130709T143706",25.8,1.2,15,1,24.11,24.88,47,1,47,"8  25  14",102,31.6,"7/9/13","4/24/01",12.20807666,"F","no",0,0,1
"335",4,"interference","interference",4,20,1,"20130709T143706",27.9,1.2,16,0,20.35,21.19,52,1,49,"5  27  17",96,28.1,"7/9/13","4/24/01",12.20807666,"F","no",0,0,1
"336",4,"interference","interference",4,21,1,"20130709T143706",25.8,1.2,15,1,4.16,5.2,71,1,71,"25  21  25",93,12.2,"7/9/13","4/24/01",12.20807666,"F","no",0,0,1
"337",4,"interference","interference",4,22,1,"20130709T143706",27.9,1.2,16,0,24.17,25.07,81,1,71,"28  15  28",101,31.9,"7/9/13","4/24/01",12.20807666,"F","no",0,0,1
"338",4,"interference","interference",4,23,1,"20130709T143706",25.8,1.2,15,1,21.78,22.48,49,1,49,"10  12  27",96,29.1,"7/9/13","4/24/01",12.20807666,"F","no",0,0,1
"360",4,"interference","interference",4,4,1,"20130709T143706",2.3,1.2,2,1,2.44,2.92,5,1,5,"1  2  2",97,9.35,"7/9/13","4/24/01",12.20807666,"F","no",0,0,1
"361",4,"interference","interference",4,5,1,"20130709T143706",3.74,1.2,3,1,1.66,2.72,10,1,10,"4  3  3",99,9.44,"7/9/13","4/24/01",12.20807666,"F","no",0,0,1
"362",4,"interference","interference",4,6,1,"20130709T143706",5.28,1.2,4,1,1.91,2.62,11,1,11,"5  3  3",90,9.37,"7/9/13","4/24/01",12.20807666,"F","no",0,0,1
"363",4,"interference","interference",4,7,1,"20130709T143706",6.9,1.2,5,1,1.84,2.62,19,1,19,"6  6  7",97,9.36,"7/9/13","4/24/01",12.20807666,"F","no",0,0,1
"364",4,"interference","interference",4,8,1,"20130709T143706",8.59,1.2,6,1,8.06,8.68,18,1,18,"2  8  8",92,15.1,"7/9/13","4/24/01",12.20807666,"F","no",0,0,1
"365",4,"interference","interference",4,9,1,"20130709T143706",10.3,1.2,7,1,2.28,3.01,18,1,18,"10   7   1",101,9.66,"7/9/13","4/24/01",12.20807666,"F","no",0,0,1
"366",4,"interference","interference",4,10,1,"20130709T143706",12.1,1.2,8,1,12.79,13.34,23,1,23,"12   5   6",98,20,"7/9/13","4/24/01",12.20807666,"F","no",0,0,1
"381",4,"interference","interference",4,25,1,"20130709T143706",25.8,1.2,15,1,20.22,21.3,49,1,49,"25  15   9",101,28.3,"7/9/13","4/24/01",12.20807666,"F","no",0,0,1
"470",5,"baseline","baseline",1,4,0,"20130711T131559",2.3,1.2,2,1,0.95,1.68,5,1,5,"2  2  1",-1,4.24,"7/11/13","4/12/01",12.24640657,"M","yes",0,1,2
"471",5,"baseline","baseline",1,5,0,"20130711T131559",3.74,1.2,3,1,2.29,2.87,9,1,9,"4  2  3",-1,5.73,"7/11/13","4/12/01",12.24640657,"M","yes",0,1,2
"472",5,"baseline","baseline",1,6,0,"20130711T131559",5.28,1.2,4,1,0.95,1.47,8,1,8,"1  3  4",-1,4.45,"7/11/13","4/12/01",12.24640657,"M","yes",0,1,2
"473",5,"baseline","baseline",1,7,0,"20130711T131559",6.9,1.2,5,1,7.48,8.2,18,1,18,"5  6  7",-1,11.4,"7/11/13","4/12/01",12.24640657,"M","yes",0,1,2
"474",5,"baseline","baseline",1,8,0,"20130711T131559",8.59,1.2,6,1,1.66,2.27,20,1,20,"6  5  9",-1,5.28,"7/11/13","4/12/01",12.24640657,"M","yes",0,1,2
"475",5,"baseline","baseline",1,9,0,"20130711T131559",10.3,1.2,7,1,0.68,1.18,20,1,20,"5  10   5",-1,4.49,"7/11/13","4/12/01",12.24640657,"M","yes",0,1,2
"476",5,"baseline","baseline",1,10,0,"20130711T131559",12.1,1.2,8,1,1.38,1.97,22,1,22,"6   4  12",-1,5.28,"7/11/13","4/12/01",12.24640657,"M","yes",0,1,2
"477",5,"baseline","baseline",1,11,0,"20130711T131559",14,1.2,9,1,2.27,2.87,23,1,23,"13   3   7",-1,5.99,"7/11/13","4/12/01",12.24640657,"M","yes",0,1,2
"478",5,"baseline","baseline",1,12,0,"20130711T131559",15.8,1.2,10,1,1.82,2.75,34,1,34,"10  16   8",-1,5.95,"7/11/13","4/12/01",12.24640657,"M","yes",0,1,2
"479",5,"baseline","baseline",1,13,0,"20130711T131559",17.8,1.2,11,1,2.1,2.88,28,1,28,"5  19   4",-1,6.18,"7/11/13","4/12/01",12.24640657,"M","yes",0,1,2
"480",5,"baseline","baseline",1,14,0,"20130711T131559",19.7,1.2,12,1,3.24,3.97,38,1,38,"20   5  13",-1,7.12,"7/11/13","4/12/01",12.24640657,"M","yes",0,1,2
"481",5,"baseline","baseline",1,15,0,"20130711T131559",21.7,1.2,13,1,1.99,2.57,33,1,33,"1  22  10",-1,5.47,"7/11/13","4/12/01",12.24640657,"M","yes",0,1,2
"482",5,"baseline","baseline",1,16,0,"20130711T131559",23.7,1.2,14,1,2.66,3.27,65,1,65,"21  19  25",-1,6.61,"7/11/13","4/12/01",12.24640657,"M","yes",0,1,2
"483",5,"baseline","baseline",1,17,0,"20130711T131559",25.8,1.2,15,1,3.39,4.25,37,1,37,"1   9  27",-1,7.27,"7/11/13","4/12/01",12.24640657,"M","yes",0,1,2
"484",5,"baseline","baseline",1,18,0,"20130711T131559",27.9,1.2,16,1,7.88,8.64,55,1,55,"20  27   8",-1,11.5,"7/11/13","4/12/01",12.24640657,"M","yes",0,1,2
"485",5,"baseline","baseline",1,19,0,"20130711T131559",30,1.2,17,1,7.02,7.74,64,1,64,"8  27  29",-1,10.7,"7/11/13","4/12/01",12.24640657,"M","yes",0,1,2
"486",5,"baseline","baseline",1,20,0,"20130711T131559",32.1,1.2,18,1,4.81,5.45,91,1,91,"31  31  29",-1,8.56,"7/11/13","4/12/01",12.24640657,"M","yes",0,1,2
"487",5,"baseline","baseline",1,21,0,"20130711T131559",34.2,1.2,19,1,6.13,6.84,53,1,53,"15   5  33",-1,9.98,"7/11/13","4/12/01",12.24640657,"M","yes",0,1,2
"488",5,"baseline","baseline",1,22,0,"20130711T131559",36.4,1.2,20,0,16.74,17.48,83,1,65,"37  22   6",-1,20.7,"7/11/13","4/12/01",12.24640657,"M","yes",0,1,2
"489",5,"baseline","baseline",1,23,0,"20130711T131559",34.2,1.2,19,1,6.52,7.04,62,1,62,"22   6  34",-1,10.1,"7/11/13","4/12/01",12.24640657,"M","yes",0,1,2
"490",5,"baseline","baseline",1,24,0,"20130711T131559",36.4,1.2,20,0,9.62,10.42,57,1,58,"21  35   2",-1,13.4,"7/11/13","4/12/01",12.24640657,"M","yes",0,1,2
"491",5,"baseline","baseline",1,25,0,"20130711T131559",34.2,1.2,19,1,5.05,6.04,56,1,56,"3  20  33",-1,9.02,"7/11/13","4/12/01",12.24640657,"M","yes",0,1,2
"492",5,"baseline","baseline",1,26,0,"20130711T131559",36.4,1.2,20,1,8.79,9.53,60,1,60,"9  14  37",-1,12.7,"7/11/13","4/12/01",12.24640657,"M","yes",0,1,2
"493",5,"baseline","baseline",1,27,0,"20130711T131559",38.6,1.2,21,0,16.51,17.37,100,1,106,"28  39  39",-1,20.5,"7/11/13","4/12/01",12.24640657,"M","yes",0,1,2
"494",5,"baseline","baseline",1,28,0,"20130711T131559",36.4,1.2,20,1,9.41,10.02,93,1,93,"28  35  30",-1,13,"7/11/13","4/12/01",12.24640657,"M","yes",0,1,2
"495",5,"baseline","baseline",1,29,0,"20130711T131559",38.6,1.2,21,1,13.74,14.4,58,1,58,"14   5  39",-1,17.6,"7/11/13","4/12/01",12.24640657,"M","yes",0,1,2
"496",5,"baseline","baseline",1,30,0,"20130711T131559",40.8,1.2,22,1,2.05,2.87,48,1,48,"40   1   7",-1,5.86,"7/11/13","4/12/01",12.24640657,"M","yes",0,1,2
"497",5,"baseline","baseline",1,31,0,"20130711T131559",43.1,1.2,23,0,4.66,5.24,82,1,72,"42   9  21",-1,8.39,"7/11/13","4/12/01",12.24640657,"M","yes",0,1,2
"498",5,"baseline","baseline",1,32,0,"20130711T131559",40.8,1.2,22,1,9.77,12.21,83,1,83,"35  41   7",-1,15.3,"7/11/13","4/12/01",12.24640657,"M","yes",0,1,2
"499",5,"baseline","baseline",1,33,0,"20130711T131559",43.1,1.2,23,1,11.99,12.9,118,1,118,"38  37  43",-1,16.3,"7/11/13","4/12/01",12.24640657,"M","yes",0,1,2
"500",5,"baseline","baseline",1,34,0,"20130711T131559",45.3,1.2,24,1,14.36,15.18,91,1,91,"11  44  36",-1,18.4,"7/11/13","4/12/01",12.24640657,"M","yes",0,1,2
"451",5,"blindfold","blindfold",4,5,0,"20130711T134859",2.3,1.2,2,1,1.76,2.17,4,1,4,"1  1  2",-1,4.85,"7/11/13","4/12/01",12.24640657,"M","yes",0,1,2
"452",5,"blindfold","blindfold",4,6,0,"20130711T134859",3.74,1.2,3,1,2.95,3.26,5,1,5,"1  3  1",-1,6.09,"7/11/13","4/12/01",12.24640657,"M","yes",0,1,2
"453",5,"blindfold","blindfold",4,7,0,"20130711T134859",5.28,1.2,4,1,1.72,2.27,11,1,11,"2  5  4",-1,5.18,"7/11/13","4/12/01",12.24640657,"M","yes",0,1,2
"454",5,"blindfold","blindfold",4,8,0,"20130711T134859",6.9,1.2,5,1,1.56,2.16,18,1,18,"6  6  6",-1,5.15,"7/11/13","4/12/01",12.24640657,"M","yes",0,1,2
"455",5,"blindfold","blindfold",4,9,0,"20130711T134859",8.59,1.2,6,1,2.25,2.77,16,1,16,"6  2  8",-1,5.51,"7/11/13","4/12/01",12.24640657,"M","yes",0,1,2
"456",5,"blindfold","blindfold",4,10,0,"20130711T134859",10.3,1.2,7,1,1.65,2.27,14,1,14,"2  10   2",-1,4.76,"7/11/13","4/12/01",12.24640657,"M","yes",0,1,2
"457",5,"blindfold","blindfold",4,11,0,"20130711T134859",12.1,1.2,8,1,9.44,10.12,31,1,31,"9   9  13",-1,13.3,"7/11/13","4/12/01",12.24640657,"M","yes",0,1,2
"458",5,"blindfold","blindfold",4,12,0,"20130711T134859",14,1.2,9,1,9.7,10.52,29,1,29,"5  14  10",-1,13.8,"7/11/13","4/12/01",12.24640657,"M","yes",0,1,2
"459",5,"blindfold","blindfold",4,13,0,"20130711T134859",15.8,1.2,10,1,2.1,2.77,40,1,40,"10  15  15",-1,6,"7/11/13","4/12/01",12.24640657,"M","yes",0,1,2
"460",5,"blindfold","blindfold",4,14,0,"20130711T134859",17.8,1.2,11,1,3.73,4.55,38,1,38,"18   2  18",-1,7.54,"7/11/13","4/12/01",12.24640657,"M","yes",0,1,2
"507",5,"blindfold","blindfold",4,19,0,"20130711T134859",27.9,1.2,16,1,7.29,7.94,56,1,56,"2  25  29",-1,10.8,"7/11/13","4/12/01",12.24640657,"M","yes",0,1,2
"508",5,"blindfold","blindfold",4,20,0,"20130711T134859",30,1.2,17,1,5.36,6.04,46,1,46,"30  15   1",-1,8.94,"7/11/13","4/12/01",12.24640657,"M","yes",0,1,2
"509",5,"blindfold","blindfold",4,21,0,"20130711T134859",32.1,1.2,18,0,14.04,14.68,90,1,80,"25  31  24",-1,17.8,"7/11/13","4/12/01",12.24640657,"M","yes",0,1,2
"510",5,"blindfold","blindfold",4,22,0,"20130711T134859",30,1.2,17,1,15.18,15.89,66,1,66,"28  29   9",-1,18.8,"7/11/13","4/12/01",12.24640657,"M","yes",0,1,2
"511",5,"blindfold","blindfold",4,23,0,"20130711T134859",32.1,1.2,18,1,4.29,5.25,38,1,38,"31   1   6",-1,8.21,"7/11/13","4/12/01",12.24640657,"M","yes",0,1,2
"512",5,"blindfold","blindfold",4,24,0,"20130711T134859",34.2,1.2,19,1,26.33,26.9,62,1,62,"15  14  33",-1,30.1,"7/11/13","4/12/01",12.24640657,"M","yes",0,1,2
"513",5,"blindfold","blindfold",4,25,0,"20130711T134859",36.4,1.2,20,1,13.33,14.19,50,1,50,"37   2  11",-1,17.1,"7/11/13","4/12/01",12.24640657,"M","yes",0,1,2
"514",5,"blindfold","blindfold",4,26,0,"20130711T134859",38.6,1.2,21,1,10.2,10.82,83,1,83,"38   6  39",-1,13.9,"7/11/13","4/12/01",12.24640657,"M","yes",0,1,2
"515",5,"blindfold","blindfold",4,27,0,"20130711T134859",40.8,1.2,22,0,30,30.08,-1,1,79,"12  41  26",-1,33.2,"7/11/13","4/12/01",12.24640657,"M","yes",0,1,2
"516",5,"blindfold","blindfold",4,28,0,"20130711T134859",38.6,1.2,21,0,18.79,19.56,101,1,91,"29  22  40",-1,22.5,"7/11/13","4/12/01",12.24640657,"M","yes",0,1,2
"517",5,"blindfold","blindfold",4,29,0,"20130711T134859",36.4,1.2,20,0,30,30.08,-1,1,71,"22  37  12",-1,33.2,"7/11/13","4/12/01",12.24640657,"M","yes",0,1,2
"518",5,"blindfold","blindfold",4,30,0,"20130711T134859",34.2,1.2,19,0,15.43,16.08,88,1,58,"19  33   6",-1,19.1,"7/11/13","4/12/01",12.24640657,"M","yes",0,1,2
"519",5,"blindfold","blindfold",4,31,0,"20130711T134859",32.1,1.2,18,1,11.42,12.01,69,1,69,"33   8  28",-1,14.9,"7/11/13","4/12/01",12.24640657,"M","yes",0,1,2
"520",5,"blindfold","blindfold",4,32,0,"20130711T134859",34.2,1.2,19,0,15.44,16.17,119,1,99,"33  31  35",-1,19.3,"7/11/13","4/12/01",12.24640657,"M","yes",0,1,2
"521",5,"blindfold","blindfold",4,33,0,"20130711T134859",32.1,1.2,18,1,9.38,10.51,56,1,56,"33  22   1",-1,13.4,"7/11/13","4/12/01",12.24640657,"M","yes",0,1,2
"522",5,"blindfold","blindfold",4,34,0,"20130711T134859",34.2,1.2,19,1,8.11,8.73,68,1,68,"3  33  32",-1,11.8,"7/11/13","4/12/01",12.24640657,"M","yes",0,1,2
"523",5,"blindfold","blindfold",4,35,0,"20130711T134859",36.4,1.2,20,0,9.73,10.92,90,1,97,"37  27  33",-1,14.1,"7/11/13","4/12/01",12.24640657,"M","yes",0,1,2
"545",5,"blindfold","blindfold",4,16,0,"20130711T134859",21.7,1.2,13,1,4.49,5.15,63,1,63,"22  21  20",-1,8.23,"7/11/13","4/12/01",12.24640657,"M","yes",0,1,2
"546",5,"blindfold","blindfold",4,17,0,"20130711T134859",23.7,1.2,14,1,3.93,4.75,38,1,38,"25  10   3",-1,7.75,"7/11/13","4/12/01",12.24640657,"M","yes",0,1,2
"547",5,"blindfold","blindfold",4,18,0,"20130711T134859",25.8,1.2,15,1,6.63,7.33,65,1,65,"25  13  27",-1,10.5,"7/11/13","4/12/01",12.24640657,"M","yes",0,1,2
"552",5,"blindfold","blindfold",4,15,0,"20130711T134859",19.7,1.2,12,1,6.83,7.64,28,1,28,"5   2  21",-1,10.7,"7/11/13","4/12/01",12.24640657,"M","yes",0,1,2
"430",5,"stillhands","stillhands",3,4,0,"20130711T133810",2.3,1.2,2,1,0.93,1.29,6,1,6,"2  2  2",-1,3.85,"7/11/13","4/12/01",12.24640657,"M","yes",0,1,2
"431",5,"stillhands","stillhands",3,5,0,"20130711T133810",3.74,1.2,3,1,7.95,8.42,9,1,9,"4  3  2",-1,11.2,"7/11/13","4/12/01",12.24640657,"M","yes",0,1,2
"432",5,"stillhands","stillhands",3,6,0,"20130711T133810",5.28,1.2,4,1,3.64,4.06,8,1,8,"2  5  1",-1,6.9,"7/11/13","4/12/01",12.24640657,"M","yes",0,1,2
"433",5,"stillhands","stillhands",3,7,0,"20130711T133810",6.9,1.2,5,1,1.82,2.37,13,1,13,"6  4  3",-1,5.27,"7/11/13","4/12/01",12.24640657,"M","yes",0,1,2
"434",5,"stillhands","stillhands",3,8,0,"20130711T133810",8.59,1.2,6,1,6.63,7.23,17,1,17,"5  3  9",-1,10.2,"7/11/13","4/12/01",12.24640657,"M","yes",0,1,2
"437",5,"stillhands","stillhands",3,11,0,"20130711T133810",10.3,1.2,7,0,4.66,5.25,15,1,17,"7  1  9",-1,8.26,"7/11/13","4/12/01",12.24640657,"M","yes",0,1,2
"438",5,"stillhands","stillhands",3,12,0,"20130711T133810",8.59,1.2,6,1,4.65,5.26,25,1,25,"10   6   9",-1,8.23,"7/11/13","4/12/01",12.24640657,"M","yes",0,1,2
"439",5,"stillhands","stillhands",3,13,0,"20130711T133810",10.3,1.2,7,1,5.49,5.93,22,1,22,"8  10   4",-1,8.88,"7/11/13","4/12/01",12.24640657,"M","yes",0,1,2
"440",5,"stillhands","stillhands",3,14,0,"20130711T133810",12.1,1.2,8,1,10.65,11.22,26,1,26,"3  12  11",-1,14.2,"7/11/13","4/12/01",12.24640657,"M","yes",0,1,2
"441",5,"stillhands","stillhands",3,15,0,"20130711T133810",14,1.2,9,1,3.96,4.75,34,1,34,"14  15   5",-1,7.91,"7/11/13","4/12/01",12.24640657,"M","yes",0,1,2
"442",5,"stillhands","stillhands",3,16,0,"20130711T133810",15.8,1.2,10,1,2.45,2.96,30,1,30,"12  15   3",-1,5.87,"7/11/13","4/12/01",12.24640657,"M","yes",0,1,2
"443",5,"stillhands","stillhands",3,17,0,"20130711T133810",17.8,1.2,11,1,6.67,7.25,40,1,40,"18  17   5",-1,10.4,"7/11/13","4/12/01",12.24640657,"M","yes",0,1,2
"444",5,"stillhands","stillhands",3,18,0,"20130711T133810",19.7,1.2,12,1,15.23,15.98,37,1,37,"19   5  13",-1,19.1,"7/11/13","4/12/01",12.24640657,"M","yes",0,1,2
"445",5,"stillhands","stillhands",3,19,0,"20130711T133810",21.7,1.2,13,1,18.31,18.96,53,1,53,"23  19  11",-1,22,"7/11/13","4/12/01",12.24640657,"M","yes",0,1,2
"446",5,"stillhands","stillhands",3,20,0,"20130711T133810",23.7,1.2,14,1,3.27,4.17,40,1,40,"8   8  24",-1,7.16,"7/11/13","4/12/01",12.24640657,"M","yes",0,1,2
"447",5,"stillhands","stillhands",3,21,0,"20130711T133810",25.8,1.2,15,1,5.44,5.94,50,1,50,"25  16   9",-1,9.02,"7/11/13","4/12/01",12.24640657,"M","yes",0,1,2
"448",5,"stillhands","stillhands",3,9,0,"20130711T133810",10.3,1.2,7,0,1.68,2.27,22,1,21,"1  10  10",-1,5.07,"7/11/13","4/12/01",12.24640657,"M","yes",0,1,2
"449",5,"stillhands","stillhands",3,10,0,"20130711T133810",8.59,1.2,6,1,7.61,8.13,22,1,22,"8  5  9",-1,11.1,"7/11/13","4/12/01",12.24640657,"M","yes",0,1,2
"530",5,"stillhands","stillhands",3,22,0,"20130711T133810",27.9,1.2,16,1,6.2,6.85,54,1,54,"14  13  27",-1,10,"7/11/13","4/12/01",12.24640657,"M","yes",0,1,2
"531",5,"stillhands","stillhands",3,23,0,"20130711T133810",30,1.2,17,0,17.76,18.47,71,1,68,"23  14  31",-1,21.6,"7/11/13","4/12/01",12.24640657,"M","yes",0,1,2
"532",5,"stillhands","stillhands",3,24,0,"20130711T133810",27.9,1.2,16,1,19.54,20.15,69,1,69,"28  13  28",-1,23.1,"7/11/13","4/12/01",12.24640657,"M","yes",0,1,2
"538",5,"stillhands","stillhands",3,29,0,"20130711T133810",30,1.2,17,1,2.12,2.58,60,1,60,"30  24   6",-1,5.56,"7/11/13","4/12/01",12.24640657,"M","yes",0,1,2
"539",5,"stillhands","stillhands",3,30,0,"20130711T133810",32.1,1.2,18,1,4.96,5.46,91,1,91,"31  31  29",-1,8.47,"7/11/13","4/12/01",12.24640657,"M","yes",0,1,2
"540",5,"stillhands","stillhands",3,31,0,"20130711T133810",34.2,1.2,19,1,3.94,4.36,56,1,56,"20  33   3",-1,7.27,"7/11/13","4/12/01",12.24640657,"M","yes",0,1,2
"541",5,"stillhands","stillhands",3,32,0,"20130711T133810",36.4,1.2,20,1,17.49,18.17,72,1,72,"17  37  18",-1,21.5,"7/11/13","4/12/01",12.24640657,"M","yes",0,1,2
"542",5,"stillhands","stillhands",3,33,0,"20130711T133810",38.6,1.2,21,1,8.45,9.32,78,1,78,"4  38  36",-1,12.4,"7/11/13","4/12/01",12.24640657,"M","yes",0,1,2
"548",5,"stillhands","stillhands",3,26,0,"20130711T133810",32.1,1.2,18,1,12.76,13.49,56,1,56,"2  21  33",-1,16.5,"7/11/13","4/12/01",12.24640657,"M","yes",0,1,2
"549",5,"stillhands","stillhands",3,27,0,"20130711T133810",34.2,1.2,19,0,17.14,18.07,90,1,80,"13  34  33",-1,21.1,"7/11/13","4/12/01",12.24640657,"M","yes",0,1,2
"550",5,"stillhands","stillhands",3,28,0,"20130711T133810",32.1,1.2,18,0,20.7,21.44,87,1,80,"26  21  33",-1,24.6,"7/11/13","4/12/01",12.24640657,"M","yes",0,1,2
"551",5,"stillhands","stillhands",3,34,0,"20130711T133810",40.8,1.2,22,1,15.54,16.18,92,1,92,"18  42  32",-1,19.3,"7/11/13","4/12/01",12.24640657,"M","yes",0,1,2
"553",5,"stillhands","stillhands",3,25,0,"20130711T133810",30,1.2,17,1,6.9,7.64,78,1,78,"30  25  23",-1,10.7,"7/11/13","4/12/01",12.24640657,"M","yes",0,1,2
"405",5,"interference","interference",2,6,1,"20130711T132701",5.28,1.2,4,1,5.35,6.2,12,1,12,"6  2  4",96,8.63,"7/11/13","4/12/01",12.24640657,"M","yes",0,1,2
"406",5,"interference","interference",2,7,1,"20130711T132701",6.9,1.2,5,1,3.05,3.9,14,1,14,"1  5  8",98,6.28,"7/11/13","4/12/01",12.24640657,"M","yes",0,1,2
"407",5,"interference","interference",2,8,1,"20130711T132701",8.59,1.2,6,1,3.59,4.43,20,1,20,"4  8  8",100,6.78,"7/11/13","4/12/01",12.24640657,"M","yes",0,1,2
"408",5,"interference","interference",2,9,1,"20130711T132701",10.3,1.2,7,1,7.25,8.16,21,1,21,"9  8  4",99,10.6,"7/11/13","4/12/01",12.24640657,"M","yes",0,1,2
"409",5,"interference","interference",2,10,1,"20130711T132701",12.1,1.2,8,1,8.31,9.28,18,1,18,"12   5   1",101,11.7,"7/11/13","4/12/01",12.24640657,"M","yes",0,1,2
"410",5,"interference","interference",2,11,1,"20130711T132701",14,1.2,9,1,7.78,8.49,26,1,26,"15   1  10",97,11,"7/11/13","4/12/01",12.24640657,"M","yes",0,1,2
"411",5,"interference","interference",2,12,1,"20130711T132701",15.8,1.2,10,1,7,7.78,40,1,40,"16  17   7",97,10.6,"7/11/13","4/12/01",12.24640657,"M","yes",0,1,2
"412",5,"interference","interference",2,13,1,"20130711T132701",17.8,1.2,11,1,11.26,12.08,38,1,38,"14   7  17",98,15,"7/11/13","4/12/01",12.24640657,"M","yes",0,1,2
"413",5,"interference","interference",2,5,1,"20130711T132701",3.74,1.2,3,1,2.4,2.95,8,1,8,"3  3  2",97,5.23,"7/11/13","4/12/01",12.24640657,"M","yes",0,1,2
"414",5,"interference","interference",2,19,1,"20130711T132701",21.7,1.2,13,1,3.25,4.04,43,1,43,"23   1  19",95,6.7,"7/11/13","4/12/01",12.24640657,"M","yes",0,1,2
"415",5,"interference","interference",2,20,1,"20130711T132701",23.7,1.2,14,1,2.4,3.54,46,1,46,"17  23   6",100,6.37,"7/11/13","4/12/01",12.24640657,"M","yes",0,1,2
"416",5,"interference","interference",2,21,1,"20130711T132701",25.8,1.2,15,1,4.25,4.93,66,1,66,"23  17  26",102,7.91,"7/11/13","4/12/01",12.24640657,"M","yes",0,1,2
"417",5,"interference","interference",2,22,1,"20130711T132701",27.9,1.2,16,1,8.26,9.28,53,1,53,"29   4  20",92,11.9,"7/11/13","4/12/01",12.24640657,"M","yes",0,1,2
"418",5,"interference","interference",2,23,1,"20130711T132701",30,1.2,17,1,6.12,7.11,78,1,78,"24  24  30",75,9.86,"7/11/13","4/12/01",12.24640657,"M","yes",0,1,2
"419",5,"interference","interference",2,24,1,"20130711T132701",32.1,1.2,18,1,11.94,12.94,71,1,71,"33  30   8",93,15.5,"7/11/13","4/12/01",12.24640657,"M","yes",0,1,2
"420",5,"interference","interference",2,25,1,"20130711T132701",34.2,1.2,19,1,7.71,8.63,80,1,80,"33  31  16",98,11.4,"7/11/13","4/12/01",12.24640657,"M","yes",0,1,2
"422",5,"interference","interference",2,14,1,"20130711T132701",19.7,1.2,12,1,3.29,3.99,30,1,30,"5  20   5",101,6.61,"7/11/13","4/12/01",12.24640657,"M","yes",0,1,2
"423",5,"interference","interference",2,15,1,"20130711T132701",21.7,1.2,13,0,14.57,15.36,65,1,54,"23  15  16",86,18.3,"7/11/13","4/12/01",12.24640657,"M","yes",0,1,2
"424",5,"interference","interference",2,16,1,"20130711T132701",19.7,1.2,12,1,12.24,13.19,45,1,45,"19   8  18",98,15.8,"7/11/13","4/12/01",12.24640657,"M","yes",0,1,2
"425",5,"interference","interference",2,17,1,"20130711T132701",21.7,1.2,13,0,6.08,6.78,48,1,46,"10  22  14",95,9.48,"7/11/13","4/12/01",12.24640657,"M","yes",0,1,2
"426",5,"interference","interference",2,18,1,"20130711T132701",19.7,1.2,12,1,9.73,10.43,45,1,45,"20  12  13",91,13.1,"7/11/13","4/12/01",12.24640657,"M","yes",0,1,2
"450",5,"interference","interference",2,28,1,"20130711T132701",40.8,1.2,22,0,15.59,16.39,73,1,78,"15  42  21",101,19.3,"7/11/13","4/12/01",12.24640657,"M","yes",0,1,2
"461",5,"interference","interference",2,26,1,"20130711T132701",36.4,1.2,20,1,12.24,13.04,76,1,76,"37  32   7",101,15.9,"7/11/13","4/12/01",12.24640657,"M","yes",0,1,2
"462",5,"interference","interference",2,27,1,"20130711T132701",38.6,1.2,21,1,17.22,17.96,65,1,65,"38  26   1",70,20.7,"7/11/13","4/12/01",12.24640657,"M","yes",0,1,2
"466",5,"interference","interference",2,4,1,"20130711T132701",2.3,1.2,2,1,4.08,4.71,6,1,6,"1  2  3",97,6.93,"7/11/13","4/12/01",12.24640657,"M","yes",0,1,2
"525",5,"interference","interference",2,34,1,"20130711T132701",40.8,1.2,22,1,19.65,20.55,98,1,98,"42  27  29",98,23.3,"7/11/13","4/12/01",12.24640657,"M","yes",0,1,2
"533",5,"interference","interference",2,29,1,"20130711T132701",38.6,1.2,21,0,25.31,26.2,91,1,86,"39  19  28",86,29,"7/11/13","4/12/01",12.24640657,"M","yes",0,1,2
"534",5,"interference","interference",2,30,1,"20130711T132701",36.4,1.2,20,1,3.34,4.08,66,1,66,"3  37  26",99,6.98,"7/11/13","4/12/01",12.24640657,"M","yes",0,1,2
"535",5,"interference","interference",2,31,1,"20130711T132701",38.6,1.2,21,1,13.74,14.66,83,1,83,"38  10  35",99,17.3,"7/11/13","4/12/01",12.24640657,"M","yes",0,1,2
"536",5,"interference","interference",2,32,1,"20130711T132701",40.8,1.2,22,1,7.43,8,71,1,71,"18  13  40",97,10.6,"7/11/13","4/12/01",12.24640657,"M","yes",0,1,2
"537",5,"interference","interference",2,33,1,"20130711T132701",43.1,1.2,23,0,14.58,15.35,69,1,78,"13  43  22",96,18.2,"7/11/13","4/12/01",12.24640657,"M","yes",0,1,2
"904",8,"baseline","baseline",2,5,0,"20130724T163208",3.74,1.2,3,1,8.32,8.64,11,1,11,"5  2  4",-1,11.5,"7/24/13","2/1/01",12.47364819,"M","no",0,1,2
"905",8,"baseline","baseline",2,6,0,"20130724T163208",5.28,1.2,4,1,3.92,4.18,8,1,8,"6  1  1",-1,6.82,"7/24/13","2/1/01",12.47364819,"M","no",0,1,2
"906",8,"baseline","baseline",2,7,0,"20130724T163208",6.9,1.2,5,1,4.1,4.37,9,1,9,"1  7  1",-1,7.11,"7/24/13","2/1/01",12.47364819,"M","no",0,1,2
"931",8,"baseline","baseline",2,18,0,"20130724T163208",27.9,1.2,16,0,24.16,24.74,64,1,74,"28  21  25",-1,27.8,"7/24/13","2/1/01",12.47364819,"M","no",0,1,2
"932",8,"baseline","baseline",2,19,0,"20130724T163208",25.8,1.2,15,0,9.92,10.41,64,1,65,"24  15  26",-1,13.6,"7/24/13","2/1/01",12.47364819,"M","no",0,1,2
"933",8,"baseline","baseline",2,20,0,"20130724T163208",23.7,1.2,14,1,25.08,25.63,58,1,58,"23  18  17",-1,28.8,"7/24/13","2/1/01",12.47364819,"M","no",0,1,2
"943",8,"baseline","baseline",2,4,0,"20130724T163208",2.3,1.2,2,1,3.34,3.58,5,1,5,"1  2  2",-1,6,"7/24/13","2/1/01",12.47364819,"M","no",0,1,2
"944",8,"baseline","baseline",2,9,0,"20130724T163208",10.3,1.2,7,1,7.84,8.34,24,1,24,"11   8   5",-1,11.1,"7/24/13","2/1/01",12.47364819,"M","no",0,1,2
"945",8,"baseline","baseline",2,10,0,"20130724T163208",12.1,1.2,8,1,7.86,8.35,30,1,30,"12  11   7",-1,11.2,"7/24/13","2/1/01",12.47364819,"M","no",0,1,2
"946",8,"baseline","baseline",2,11,0,"20130724T163208",14,1.2,9,1,3.26,3.68,30,1,30,"14   6  10",-1,6.62,"7/24/13","2/1/01",12.47364819,"M","no",0,1,2
"947",8,"baseline","baseline",2,8,0,"20130724T163208",8.59,1.2,6,1,8.3,8.65,21,1,21,"8  8  5",-1,11.3,"7/24/13","2/1/01",12.47364819,"M","no",0,1,2
"948",8,"baseline","baseline",2,13,0,"20130724T163208",17.8,1.2,11,1,14.37,14.79,26,1,26,"17   3   6",-1,17.8,"7/24/13","2/1/01",12.47364819,"M","no",0,1,2
"949",8,"baseline","baseline",2,14,0,"20130724T163208",19.7,1.2,12,1,11.32,11.72,33,1,33,"12  19   2",-1,14.4,"7/24/13","2/1/01",12.47364819,"M","no",0,1,2
"950",8,"baseline","baseline",2,15,0,"20130724T163208",21.7,1.2,13,1,12.1,12.61,40,1,40,"13  21   6",-1,15.7,"7/24/13","2/1/01",12.47364819,"M","no",0,1,2
"951",8,"baseline","baseline",2,12,0,"20130724T163208",15.8,1.2,10,1,13.02,13.5,31,1,31,"12   4  15",-1,16.5,"7/24/13","2/1/01",12.47364819,"M","no",0,1,2
"952",8,"baseline","baseline",2,17,0,"20130724T163208",25.8,1.2,15,1,17.59,18.08,55,1,55,"23   7  25",-1,21.2,"7/24/13","2/1/01",12.47364819,"M","no",0,1,2
"953",8,"baseline","baseline",2,22,0,"20130724T163208",27.9,1.2,16,0,30,30.1,-1,1,50,"13   9  28",-1,33,"7/24/13","2/1/01",12.47364819,"M","no",0,1,2
"954",8,"baseline","baseline",2,23,0,"20130724T163208",25.8,1.2,15,1,9.12,9.63,43,1,43,"4  27  12",-1,12.6,"7/24/13","2/1/01",12.47364819,"M","no",0,1,2
"955",8,"baseline","baseline",2,16,0,"20130724T163208",23.7,1.2,14,1,7.56,7.95,44,1,44,"23  14   7",-1,11,"7/24/13","2/1/01",12.47364819,"M","no",0,1,2
"956",8,"baseline","baseline",2,21,0,"20130724T163208",25.8,1.2,15,1,18.7,19.17,55,1,55,"17  12  26",-1,22.2,"7/24/13","2/1/01",12.47364819,"M","no",0,1,2
"957",8,"baseline","baseline",2,26,0,"20130724T163208",27.9,1.2,16,1,14.8,15.4,76,1,76,"29  20  27",-1,18.4,"7/24/13","2/1/01",12.47364819,"M","no",0,1,2
"958",8,"baseline","baseline",2,27,0,"20130724T163208",30,1.2,17,1,22.92,23.34,51,1,51,"17   3  31",-1,26.4,"7/24/13","2/1/01",12.47364819,"M","no",0,1,2
"959",8,"baseline","baseline",2,24,0,"20130724T163208",27.9,1.2,16,0,24.71,25.23,46,1,65,"27  29   9",-1,28.2,"7/24/13","2/1/01",12.47364819,"M","no",0,1,2
"960",8,"baseline","baseline",2,25,0,"20130724T163208",25.8,1.2,15,1,22.67,23.14,55,1,55,"27  19   9",-1,26.2,"7/24/13","2/1/01",12.47364819,"M","no",0,1,2
"962",8,"baseline","baseline",2,28,0,"20130724T163208",32.1,1.2,18,0,17.14,17.67,75,1,65,"32  23  10",-1,20.7,"7/24/13","2/1/01",12.47364819,"M","no",0,1,2
"845",8,"blindfold","blindfold",4,6,0,"20130724T165719",5.28,1.2,4,1,11.69,12.21,12,1,12,"3  5  4",-1,15.1,"7/24/13","2/1/01",12.47364819,"M","no",0,1,2
"847",8,"blindfold","blindfold",4,5,0,"20130724T165719",3.74,1.2,3,1,15.24,15.69,10,1,10,"5  2  3",-1,18.4,"7/24/13","2/1/01",12.47364819,"M","no",0,1,2
"848",8,"blindfold","blindfold",4,14,0,"20130724T165719",15.8,1.2,10,1,4.75,5.36,28,1,28,"2  16  10",-1,8.09,"7/24/13","2/1/01",12.47364819,"M","no",0,1,2
"850",8,"blindfold","blindfold",4,4,0,"20130724T165719",2.3,1.2,2,1,4.55,4.86,6,1,6,"3  1  2",-1,7.4,"7/24/13","2/1/01",12.47364819,"M","no",0,1,2
"851",8,"blindfold","blindfold",4,13,0,"20130724T165719",14,1.2,9,1,12.32,12.82,25,1,25,"13   1  11",-1,15.6,"7/24/13","2/1/01",12.47364819,"M","no",0,1,2
"852",8,"blindfold","blindfold",4,18,0,"20130724T165719",23.7,1.2,14,0,30,30.1,-1,1,48,"23  16   9",-1,33.1,"7/24/13","2/1/01",12.47364819,"M","no",0,1,2
"853",8,"blindfold","blindfold",4,15,0,"20130724T165719",17.8,1.2,11,1,9.07,9.54,32,1,32,"18   4  10",-1,12.4,"7/24/13","2/1/01",12.47364819,"M","no",0,1,2
"854",8,"blindfold","blindfold",4,16,0,"20130724T165719",19.7,1.2,12,1,18.08,18.78,37,1,37,"13   3  21",-1,21.8,"7/24/13","2/1/01",12.47364819,"M","no",0,1,2
"855",8,"blindfold","blindfold",4,17,0,"20130724T165719",21.7,1.2,13,1,10.12,10.72,39,1,39,"9   7  23",-1,13.7,"7/24/13","2/1/01",12.47364819,"M","no",0,1,2
"856",8,"blindfold","blindfold",4,9,0,"20130724T165719",10.3,1.2,7,1,5.82,6.25,21,1,21,"2   8  11",-1,8.76,"7/24/13","2/1/01",12.47364819,"M","no",0,1,2
"857",8,"blindfold","blindfold",4,19,0,"20130724T165719",21.7,1.2,13,1,11.21,11.72,45,1,45,"14   8  23",-1,14.7,"7/24/13","2/1/01",12.47364819,"M","no",0,1,2
"858",8,"blindfold","blindfold",4,7,0,"20130724T165719",6.9,1.2,5,1,6.97,7.53,18,1,18,"5  5  8",-1,10.3,"7/24/13","2/1/01",12.47364819,"M","no",0,1,2
"859",8,"blindfold","blindfold",4,8,0,"20130724T165719",8.59,1.2,6,1,5.07,5.46,20,1,20,"6  10   4",-1,8.32,"7/24/13","2/1/01",12.47364819,"M","no",0,1,2
"860",8,"blindfold","blindfold",4,26,0,"20130724T165719",27.9,1.2,16,1,16.97,17.5,78,1,78,"29  24  25",-1,20.5,"7/24/13","2/1/01",12.47364819,"M","no",0,1,2
"861",8,"blindfold","blindfold",4,27,0,"20130724T165719",30,1.2,17,1,24.71,25.33,73,1,73,"28  31  14",-1,28.3,"7/24/13","2/1/01",12.47364819,"M","no",0,1,2
"862",8,"blindfold","blindfold",4,28,0,"20130724T165719",32.1,1.2,18,1,23.3,23.74,51,1,51,"33   9   9",-1,26.6,"7/24/13","2/1/01",12.47364819,"M","no",0,1,2
"870",8,"blindfold","blindfold",4,10,0,"20130724T165719",12.1,1.2,8,1,11.04,11.52,31,1,31,"12  10   9",-1,14.3,"7/24/13","2/1/01",12.47364819,"M","no",0,1,2
"871",8,"blindfold","blindfold",4,11,0,"20130724T165719",14,1.2,9,0,14.98,15.4,46,1,41,"15  13  13",-1,18.5,"7/24/13","2/1/01",12.47364819,"M","no",0,1,2
"872",8,"blindfold","blindfold",4,12,0,"20130724T165719",12.1,1.2,8,1,8.98,9.53,35,1,35,"12  13  10",-1,12.3,"7/24/13","2/1/01",12.47364819,"M","no",0,1,2
"894",8,"blindfold","blindfold",4,20,0,"20130724T165719",23.7,1.2,14,0,30,30.1,-1,1,51,"8  25  18",-1,33,"7/24/13","2/1/01",12.47364819,"M","no",0,1,2
"895",8,"blindfold","blindfold",4,21,0,"20130724T165719",21.7,1.2,13,1,14.84,15.3,51,1,51,"14  22  15",-1,18.4,"7/24/13","2/1/01",12.47364819,"M","no",0,1,2
"899",8,"blindfold","blindfold",4,25,0,"20130724T165719",25.8,1.2,15,1,11.32,11.92,34,1,34,"4  25   5",-1,14.9,"7/24/13","2/1/01",12.47364819,"M","no",0,1,2
"936",8,"blindfold","blindfold",4,22,0,"20130724T165719",23.7,1.2,14,0,16.14,16.58,62,1,61,"24  14  23",-1,19.7,"7/24/13","2/1/01",12.47364819,"M","no",0,1,2
"937",8,"blindfold","blindfold",4,23,0,"20130724T165719",21.7,1.2,13,1,19.02,19.56,52,1,52,"7  23  22",-1,22.6,"7/24/13","2/1/01",12.47364819,"M","no",0,1,2
"938",8,"blindfold","blindfold",4,24,0,"20130724T165719",23.7,1.2,14,1,27.31,27.82,36,1,36,"12  23   1",-1,30.6,"7/24/13","2/1/01",12.47364819,"M","no",0,1,2
"864",8,"stillhands","stillhands",1,6,0,"20130724T162121",5.28,1.2,4,1,0.94,1.29,10,1,10,"4  5  1",-1,4.13,"7/24/13","2/1/01",12.47364819,"M","no",0,1,2
"865",8,"stillhands","stillhands",1,7,0,"20130724T162121",6.9,1.2,5,1,1.68,2.18,12,1,12,"1  3  8",-1,4.84,"7/24/13","2/1/01",12.47364819,"M","no",0,1,2
"866",8,"stillhands","stillhands",1,8,0,"20130724T162121",8.59,1.2,6,1,6.63,7.44,21,1,21,"8  9  4",-1,10.3,"7/24/13","2/1/01",12.47364819,"M","no",0,1,2
"902",8,"stillhands","stillhands",1,4,0,"20130724T162121",2.3,1.2,2,1,1.52,1.76,5,1,5,"1  1  3",-1,4.4,"7/24/13","2/1/01",12.47364819,"M","no",0,1,2
"903",8,"stillhands","stillhands",1,5,0,"20130724T162121",3.74,1.2,3,1,1.53,1.99,10,1,10,"2  5  3",-1,4.71,"7/24/13","2/1/01",12.47364819,"M","no",0,1,2
"907",8,"stillhands","stillhands",1,9,0,"20130724T162121",10.3,1.2,7,1,6.16,10.53,21,1,21,"11   8   2",-1,13.2,"7/24/13","2/1/01",12.47364819,"M","no",0,1,2
"908",8,"stillhands","stillhands",1,10,0,"20130724T162121",12.1,1.2,8,1,4.88,5.35,21,1,21,"2   6  13",-1,8.21,"7/24/13","2/1/01",12.47364819,"M","no",0,1,2
"909",8,"stillhands","stillhands",1,11,0,"20130724T162121",14,1.2,9,1,4.75,5.36,28,1,28,"10   4  14",-1,8.3,"7/24/13","2/1/01",12.47364819,"M","no",0,1,2
"910",8,"stillhands","stillhands",1,12,0,"20130724T162121",15.8,1.2,10,1,13.27,14.11,34,1,34,"9  16   9",-1,17.1,"7/24/13","2/1/01",12.47364819,"M","no",0,1,2
"911",8,"stillhands","stillhands",1,13,0,"20130724T162121",17.8,1.2,11,1,19.35,19.97,41,1,41,"19   5  17",-1,23.1,"7/24/13","2/1/01",12.47364819,"M","no",0,1,2
"912",8,"stillhands","stillhands",1,14,0,"20130724T162121",19.7,1.2,12,1,4.15,4.57,32,1,32,"12   1  19",-1,7.38,"7/24/13","2/1/01",12.47364819,"M","no",0,1,2
"913",8,"stillhands","stillhands",1,15,0,"20130724T162121",21.7,1.2,13,1,8.18,8.75,50,1,50,"10  17  23",-1,11.8,"7/24/13","2/1/01",12.47364819,"M","no",0,1,2
"914",8,"stillhands","stillhands",1,16,0,"20130724T162121",23.7,1.2,14,1,7.01,7.45,53,1,53,"20  25   8",-1,10.3,"7/24/13","2/1/01",12.47364819,"M","no",0,1,2
"915",8,"stillhands","stillhands",1,17,0,"20130724T162121",25.8,1.2,15,0,14.88,15.6,47,1,57,"15  16  26",-1,18.9,"7/24/13","2/1/01",12.47364819,"M","no",0,1,2
"916",8,"stillhands","stillhands",1,18,0,"20130724T162121",23.7,1.2,14,0,12.16,12.71,33,1,43,"14   5  24",-1,15.8,"7/24/13","2/1/01",12.47364819,"M","no",0,1,2
"917",8,"stillhands","stillhands",1,19,0,"20130724T162121",21.7,1.2,13,1,7.01,7.53,49,1,49,"22  11  16",-1,10.6,"7/24/13","2/1/01",12.47364819,"M","no",0,1,2
"918",8,"stillhands","stillhands",1,20,0,"20130724T162121",23.7,1.2,14,1,11.55,12.12,60,1,60,"25  23  12",-1,15.1,"7/24/13","2/1/01",12.47364819,"M","no",0,1,2
"919",8,"stillhands","stillhands",1,21,0,"20130724T162121",25.8,1.2,15,0,30,30.09,-1,1,54,"16  12  26",-1,33.1,"7/24/13","2/1/01",12.47364819,"M","no",0,1,2
"920",8,"stillhands","stillhands",1,22,0,"20130724T162121",23.7,1.2,14,1,11.56,12.12,49,1,49,"25  14  10",-1,15.1,"7/24/13","2/1/01",12.47364819,"M","no",0,1,2
"921",8,"stillhands","stillhands",1,23,0,"20130724T162121",25.8,1.2,15,1,16.53,17.18,47,1,47,"18   3  26",-1,20.2,"7/24/13","2/1/01",12.47364819,"M","no",0,1,2
"922",8,"stillhands","stillhands",1,24,0,"20130724T162121",27.9,1.2,16,0,30,30.1,-1,1,53,"29  16   8",-1,33,"7/24/13","2/1/01",12.47364819,"M","no",0,1,2
"923",8,"stillhands","stillhands",1,25,0,"20130724T162121",25.8,1.2,15,0,30,30.09,-1,1,60,"24  27   9",-1,33.1,"7/24/13","2/1/01",12.47364819,"M","no",0,1,2
"924",8,"stillhands","stillhands",1,26,0,"20130724T162121",23.7,1.2,14,1,25.97,26.44,55,1,55,"22  24   9",-1,29.4,"7/24/13","2/1/01",12.47364819,"M","no",0,1,2
"925",8,"stillhands","stillhands",1,27,0,"20130724T162121",25.8,1.2,15,0,30,30.09,-1,1,63,"19  26  18",-1,33.2,"7/24/13","2/1/01",12.47364819,"M","no",0,1,2
"926",8,"stillhands","stillhands",1,28,0,"20130724T162121",23.7,1.2,14,1,3.71,4.18,33,1,33,"25   5   3",-1,7.09,"7/24/13","2/1/01",12.47364819,"M","no",0,1,2
"867",8,"interference","interference",3,4,1,"20130724T164440",2.3,1.2,2,1,4.96,5.31,4,1,4,"1  1  2",98,7.48,"7/24/13","2/1/01",12.47364819,"M","no",0,1,2
"868",8,"interference","interference",3,5,1,"20130724T164440",3.74,1.2,3,1,4.4,4.92,10,1,10,"3  5  2",97,7.26,"7/24/13","2/1/01",12.47364819,"M","no",0,1,2
"869",8,"interference","interference",3,6,1,"20130724T164440",5.28,1.2,4,1,2.92,3.76,12,1,12,"6  2  4",99,6.17,"7/24/13","2/1/01",12.47364819,"M","no",0,1,2
"873",8,"interference","interference",3,10,1,"20130724T164440",12.1,1.2,8,1,9.68,10.33,17,1,17,"2   3  12",99,12.6,"7/24/13","2/1/01",12.47364819,"M","no",0,1,2
"874",8,"interference","interference",3,11,1,"20130724T164440",14,1.2,9,1,14.84,15.42,34,1,34,"15  13   6",93,18.2,"7/24/13","2/1/01",12.47364819,"M","no",0,1,2
"875",8,"interference","interference",3,12,1,"20130724T164440",15.8,1.2,10,0,9.98,10.66,35,1,41,"11  17  13",90,13.4,"7/24/13","2/1/01",12.47364819,"M","no",0,1,2
"876",8,"interference","interference",3,13,1,"20130724T164440",14,1.2,9,1,5.64,6.23,26,1,26,"7  14   5",96,8.98,"7/24/13","2/1/01",12.47364819,"M","no",0,1,2
"877",8,"interference","interference",3,14,1,"20130724T164440",15.8,1.2,10,1,15.67,16.31,34,1,34,"10   9  15",93,18.9,"7/24/13","2/1/01",12.47364819,"M","no",0,1,2
"878",8,"interference","interference",3,15,1,"20130724T164440",17.8,1.2,11,0,16.69,17.31,40,1,44,"16   9  19",99,20,"7/24/13","2/1/01",12.47364819,"M","no",0,1,2
"879",8,"interference","interference",3,16,1,"20130724T164440",15.8,1.2,10,1,4.29,5.03,28,1,28,"1  17  10",97,7.58,"7/24/13","2/1/01",12.47364819,"M","no",0,1,2
"880",8,"interference","interference",3,17,1,"20130724T164440",17.8,1.2,11,1,11.35,11.87,38,1,38,"17  17   4",98,14.8,"7/24/13","2/1/01",12.47364819,"M","no",0,1,2
"881",8,"interference","interference",3,18,1,"20130724T164440",19.7,1.2,12,1,10.04,10.86,37,1,37,"2  16  19",100,13.4,"7/24/13","2/1/01",12.47364819,"M","no",0,1,2
"882",8,"interference","interference",3,19,1,"20130724T164440",21.7,1.2,13,1,4.54,5.14,29,1,29,"2   6  21",102,7.66,"7/24/13","2/1/01",12.47364819,"M","no",0,1,2
"883",8,"interference","interference",3,7,1,"20130724T164440",6.9,1.2,5,1,3.16,3.68,16,1,16,"7  7  2",101,6.11,"7/24/13","2/1/01",12.47364819,"M","no",0,1,2
"884",8,"interference","interference",3,8,1,"20130724T164440",8.59,1.2,6,1,7.7,8.31,16,1,16,"3   3  10",96,10.7,"7/24/13","2/1/01",12.47364819,"M","no",0,1,2
"885",8,"interference","interference",3,9,1,"20130724T164440",10.3,1.2,7,1,10.42,11.22,18,1,18,"6  3  9",97,13.7,"7/24/13","2/1/01",12.47364819,"M","no",0,1,2
"886",8,"interference","interference",3,23,1,"20130724T164440",25.8,1.2,15,0,-1,-1,-1,1,69,"27  16  26",4,33.1,"7/24/13","2/1/01",12.47364819,"M","no",0,1,2
"887",8,"interference","interference",3,24,1,"20130724T164440",23.7,1.2,14,1,16.45,17.02,65,1,65,"21  24  20",96,19.8,"7/24/13","2/1/01",12.47364819,"M","no",0,1,2
"888",8,"interference","interference",3,25,1,"20130724T164440",25.8,1.2,15,1,16.12,16.64,67,1,67,"27  18  22",94,19.5,"7/24/13","2/1/01",12.47364819,"M","no",0,1,2
"889",8,"interference","interference",3,26,1,"20130724T164440",27.9,1.2,16,1,5.43,6.13,49,1,49,"11   9  29",99,8.69,"7/24/13","2/1/01",12.47364819,"M","no",0,1,2
"890",8,"interference","interference",3,27,1,"20130724T164440",30,1.2,17,1,19.71,22,49,1,49,"5  30  14",95,24.7,"7/24/13","2/1/01",12.47364819,"M","no",0,1,2
"891",8,"interference","interference",3,28,1,"20130724T164440",32.1,1.2,18,1,19.29,19.73,44,1,44,"33   2   9",97,22.2,"7/24/13","2/1/01",12.47364819,"M","no",0,1,2
"896",8,"interference","interference",3,20,1,"20130724T164440",23.7,1.2,14,0,10.09,10.59,50,1,64,"24  17  23",101,13.5,"7/24/13","2/1/01",12.47364819,"M","no",0,1,2
"897",8,"interference","interference",3,21,1,"20130724T164440",21.7,1.2,13,1,10.34,10.78,43,1,43,"7  13  23",94,13.5,"7/24/13","2/1/01",12.47364819,"M","no",0,1,2
"898",8,"interference","interference",3,22,1,"20130724T164440",23.7,1.2,14,1,12.87,13.33,45,1,45,"24  14   7",101,16.1,"7/24/13","2/1/01",12.47364819,"M","no",0,1,2
"1088",10,"baseline","baseline",1,4,0,"20130815T132407",2.3,1.2,2,1,1.27,1.78,7,1,7,"2  2  3",-1,4.52,"8/15/13","9/29/00",12.87611225,"F","yes",0,0,1
"1089",10,"baseline","baseline",1,5,0,"20130815T132407",3.74,1.2,3,1,1.53,2.19,10,1,10,"3  4  3",-1,5.09,"8/15/13","9/29/00",12.87611225,"F","yes",0,0,1
"1090",10,"baseline","baseline",1,6,0,"20130815T132407",5.28,1.2,4,1,2.26,2.91,15,1,15,"6  5  4",-1,5.85,"8/15/13","9/29/00",12.87611225,"F","yes",0,0,1
"1091",10,"baseline","baseline",1,7,0,"20130815T132407",6.9,1.2,5,1,1.52,2.09,12,1,12,"6  3  3",-1,4.89,"8/15/13","9/29/00",12.87611225,"F","yes",0,0,1
"1092",10,"baseline","baseline",1,8,0,"20130815T132407",8.59,1.2,6,1,1.29,1.98,19,1,19,"3  9  7",-1,4.89,"8/15/13","9/29/00",12.87611225,"F","yes",0,0,1
"1093",10,"baseline","baseline",1,9,0,"20130815T132407",10.3,1.2,7,1,2.99,3.48,23,1,23,"8  9  6",-1,6.35,"8/15/13","9/29/00",12.87611225,"F","yes",0,0,1
"1094",10,"baseline","baseline",1,10,0,"20130815T132407",12.1,1.2,8,1,1.2,1.78,33,1,33,"11  11  11",-1,4.8,"8/15/13","9/29/00",12.87611225,"F","yes",0,0,1
"1095",10,"baseline","baseline",1,11,0,"20130815T132407",14,1.2,9,1,3.51,4.57,24,1,24,"3  13   8",-1,7.61,"8/15/13","9/29/00",12.87611225,"F","yes",0,0,1
"1096",10,"baseline","baseline",1,12,0,"20130815T132407",15.8,1.2,10,1,4.69,5.25,35,1,35,"16  14   5",-1,8.63,"8/15/13","9/29/00",12.87611225,"F","yes",0,0,1
"1097",10,"baseline","baseline",1,13,0,"20130815T132407",17.8,1.2,11,1,1.55,2.19,39,1,39,"17  17   5",-1,5.68,"8/15/13","9/29/00",12.87611225,"F","yes",0,0,1
"1098",10,"baseline","baseline",1,14,0,"20130815T132407",19.7,1.2,12,1,2.22,3.06,34,1,34,"7  19   8",-1,6.14,"8/15/13","9/29/00",12.87611225,"F","yes",0,0,1
"1099",10,"baseline","baseline",1,15,0,"20130815T132407",21.7,1.2,13,1,3.39,3.96,52,1,52,"23  22   7",-1,7.16,"8/15/13","9/29/00",12.87611225,"F","yes",0,0,1
"1100",10,"baseline","baseline",1,16,0,"20130815T132407",23.7,1.2,14,1,5.45,6.26,41,1,41,"5  25  11",-1,9.26,"8/15/13","9/29/00",12.87611225,"F","yes",0,0,1
"1101",10,"baseline","baseline",1,17,0,"20130815T132407",25.8,1.2,15,1,6.51,7.05,60,1,60,"27  21  12",-1,10.1,"8/15/13","9/29/00",12.87611225,"F","yes",0,0,1
"1102",10,"baseline","baseline",1,18,0,"20130815T132407",27.9,1.2,16,1,6.34,7.24,68,1,68,"29  26  13",-1,10.4,"8/15/13","9/29/00",12.87611225,"F","yes",0,0,1
"1103",10,"baseline","baseline",1,19,0,"20130815T132407",30,1.2,17,1,2.47,3.06,65,1,65,"10  30  25",-1,6.1,"8/15/13","9/29/00",12.87611225,"F","yes",0,0,1
"1104",10,"baseline","baseline",1,20,0,"20130815T132407",32.1,1.2,18,0,7.28,7.95,41,1,51,"15  32   4",-1,11,"8/15/13","9/29/00",12.87611225,"F","yes",0,0,1
"1105",10,"baseline","baseline",1,21,0,"20130815T132407",30,1.2,17,1,7.66,8.43,72,1,72,"21  29  22",-1,11.6,"8/15/13","9/29/00",12.87611225,"F","yes",0,0,1
"1106",10,"baseline","baseline",1,22,0,"20130815T132407",32.1,1.2,18,0,5.43,6.35,51,1,81,"18  31  32",-1,9.47,"8/15/13","9/29/00",12.87611225,"F","yes",0,0,1
"1107",10,"baseline","baseline",1,23,0,"20130815T132407",30,1.2,17,1,12.93,13.8,57,1,57,"29   9  19",-1,16.8,"8/15/13","9/29/00",12.87611225,"F","yes",0,0,1
"1108",10,"baseline","baseline",1,24,0,"20130815T132407",32.1,1.2,18,1,6.44,7.05,82,1,82,"32  31  19",-1,10.1,"8/15/13","9/29/00",12.87611225,"F","yes",0,0,1
"1109",10,"baseline","baseline",1,25,0,"20130815T132407",34.2,1.2,19,1,6.99,7.75,82,1,82,"35  25  22",-1,10.9,"8/15/13","9/29/00",12.87611225,"F","yes",0,0,1
"1110",10,"baseline","baseline",1,26,0,"20130815T132407",36.4,1.2,20,0,30,30.1,-1,1,59,"9  35  15",-1,33.2,"8/15/13","9/29/00",12.87611225,"F","yes",0,0,1
"1111",10,"baseline","baseline",1,27,0,"20130815T132407",34.2,1.2,19,1,5.61,6.24,63,1,63,"33  23   7",-1,9.4,"8/15/13","9/29/00",12.87611225,"F","yes",0,0,1
"1112",10,"baseline","baseline",1,28,0,"20130815T132407",36.4,1.2,20,1,8.48,9.23,76,1,76,"36  26  14",-1,12.5,"8/15/13","9/29/00",12.87611225,"F","yes",0,0,1
"1113",10,"baseline","baseline",1,29,0,"20130815T132407",38.6,1.2,21,1,1.8,2.59,50,1,50,"8  40   2",-1,5.23,"8/15/13","9/29/00",12.87611225,"F","yes",0,0,1
"1114",10,"baseline","baseline",1,30,0,"20130815T132407",40.8,1.2,22,1,5.21,5.91,67,1,67,"6  20  41",-1,9.03,"8/15/13","9/29/00",12.87611225,"F","yes",0,0,1
"1115",10,"baseline","baseline",1,31,0,"20130815T132407",43.1,1.2,23,1,8.1,8.74,76,1,76,"9  25  42",-1,11.8,"8/15/13","9/29/00",12.87611225,"F","yes",0,0,1
"1116",10,"baseline","baseline",1,32,0,"20130815T132407",45.3,1.2,24,1,2.19,2.79,86,1,86,"4  46  36",-1,6.2,"8/15/13","9/29/00",12.87611225,"F","yes",0,0,1
"1117",10,"baseline","baseline",1,33,0,"20130815T132407",47.6,1.2,25,1,2.6,3.66,104,1,104,"49  11  44",-1,6.91,"8/15/13","9/29/00",12.87611225,"F","yes",0,0,1
"1118",10,"baseline","baseline",1,34,0,"20130815T132407",49.9,1.2,26,1,14.8,15.88,118,1,118,"51  32  35",-1,19,"8/15/13","9/29/00",12.87611225,"F","yes",0,0,1
"1119",10,"baseline","baseline",1,35,0,"20130815T132407",52.2,1.2,27,0,30,30.1,-1,1,91,"2  51  38",-1,33.1,"8/15/13","9/29/00",12.87611225,"F","yes",0,0,1
"1120",10,"baseline","baseline",1,36,0,"20130815T132407",49.9,1.2,26,1,10.44,11.43,130,1,130,"29  51  50",-1,14.3,"8/15/13","9/29/00",12.87611225,"F","yes",0,0,1
"1121",10,"baseline","baseline",1,37,0,"20130815T132407",52.2,1.2,27,1,3.51,4.46,114,1,114,"51  48  15",-1,7.68,"8/15/13","9/29/00",12.87611225,"F","yes",0,0,1
"1126",10,"blindfold","blindfold",3,10,0,"20130815T134639",12.1,1.2,8,1,15.1,15.61,31,1,31,"9  13   9",-1,18.5,"8/15/13","9/29/00",12.87611225,"F","yes",0,0,1
"1127",10,"blindfold","blindfold",3,11,0,"20130815T134639",14,1.2,9,1,4.04,4.77,25,1,25,"9  13   3",-1,8.05,"8/15/13","9/29/00",12.87611225,"F","yes",0,0,1
"1128",10,"blindfold","blindfold",3,12,0,"20130815T134639",15.8,1.2,10,1,3.01,3.47,26,1,26,"4  15   7",-1,6.86,"8/15/13","9/29/00",12.87611225,"F","yes",0,0,1
"1129",10,"blindfold","blindfold",3,13,0,"20130815T134639",17.8,1.2,11,0,5.17,5.87,32,1,39,"13  18   8",-1,8.95,"8/15/13","9/29/00",12.87611225,"F","yes",0,0,1
"1130",10,"blindfold","blindfold",3,14,0,"20130815T134639",15.8,1.2,10,1,10.59,11.03,31,1,31,"12  15   4",-1,14,"8/15/13","9/29/00",12.87611225,"F","yes",0,0,1
"1131",10,"blindfold","blindfold",3,15,0,"20130815T134639",17.8,1.2,11,1,8.43,9.13,39,1,39,"17  18   4",-1,12.2,"8/15/13","9/29/00",12.87611225,"F","yes",0,0,1
"1132",10,"blindfold","blindfold",3,16,0,"20130815T134639",19.7,1.2,12,1,2.81,3.28,34,1,34,"10  21   3",-1,6.12,"8/15/13","9/29/00",12.87611225,"F","yes",0,0,1
"1133",10,"blindfold","blindfold",3,17,0,"20130815T134639",21.7,1.2,13,1,3.49,4.27,44,1,44,"2  21  21",-1,7.32,"8/15/13","9/29/00",12.87611225,"F","yes",0,0,1
"1134",10,"blindfold","blindfold",3,18,0,"20130815T134639",23.7,1.2,14,1,7.15,7.83,39,1,39,"15  23   1",-1,10.8,"8/15/13","9/29/00",12.87611225,"F","yes",0,0,1
"1135",10,"blindfold","blindfold",3,19,0,"20130815T134639",25.8,1.2,15,1,2.18,2.87,47,1,47,"17   5  25",-1,5.99,"8/15/13","9/29/00",12.87611225,"F","yes",0,0,1
"1136",10,"blindfold","blindfold",3,20,0,"20130815T134639",27.9,1.2,16,1,2.85,3.56,53,1,53,"11  14  28",-1,6.53,"8/15/13","9/29/00",12.87611225,"F","yes",0,0,1
"1137",10,"blindfold","blindfold",3,21,0,"20130815T134639",30,1.2,17,1,4.57,5.25,88,1,88,"28  30  30",-1,8.12,"8/15/13","9/29/00",12.87611225,"F","yes",0,0,1
"1138",10,"blindfold","blindfold",3,22,0,"20130815T134639",32.1,1.2,18,1,5.64,6.25,42,1,42,"3  32   7",-1,9.19,"8/15/13","9/29/00",12.87611225,"F","yes",0,0,1
"1139",10,"blindfold","blindfold",3,23,0,"20130815T134639",34.2,1.2,19,1,4.86,5.36,78,1,78,"35  13  30",-1,8.35,"8/15/13","9/29/00",12.87611225,"F","yes",0,0,1
"1140",10,"blindfold","blindfold",3,24,0,"20130815T134639",36.4,1.2,20,0,15.93,17.19,110,1,80,"14  30  36",-1,20.2,"8/15/13","9/29/00",12.87611225,"F","yes",0,0,1
"1141",10,"blindfold","blindfold",3,25,0,"20130815T134639",34.2,1.2,19,1,6.59,7.16,68,1,68,"34  24  10",-1,10.1,"8/15/13","9/29/00",12.87611225,"F","yes",0,0,1
"1142",10,"blindfold","blindfold",3,26,0,"20130815T134639",36.4,1.2,20,0,12.92,13.4,53,1,83,"23  25  35",-1,16.6,"8/15/13","9/29/00",12.87611225,"F","yes",0,0,1
"1143",10,"blindfold","blindfold",3,27,0,"20130815T134639",34.2,1.2,19,0,30,30.11,-1,1,83,"31  18  34",-1,33.2,"8/15/13","9/29/00",12.87611225,"F","yes",0,0,1
"1144",10,"blindfold","blindfold",3,28,0,"20130815T134639",32.1,1.2,18,1,12.97,13.51,65,1,65,"23  32  10",-1,16.4,"8/15/13","9/29/00",12.87611225,"F","yes",0,0,1
"1145",10,"blindfold","blindfold",3,29,0,"20130815T134639",34.2,1.2,19,0,17.43,17.97,47,1,57,"18   5  34",-1,21,"8/15/13","9/29/00",12.87611225,"F","yes",0,0,1
"1146",10,"blindfold","blindfold",3,30,0,"20130815T134639",32.1,1.2,18,0,9.25,9.93,55,1,75,"23  19  33",-1,13,"8/15/13","9/29/00",12.87611225,"F","yes",0,0,1
"1147",10,"blindfold","blindfold",3,31,0,"20130815T134639",30,1.2,17,1,15.07,15.59,58,1,58,"15  31  12",-1,18.6,"8/15/13","9/29/00",12.87611225,"F","yes",0,0,1
"1148",10,"blindfold","blindfold",3,32,0,"20130815T134639",32.1,1.2,18,1,10.17,10.72,67,1,67,"31  14  22",-1,13.8,"8/15/13","9/29/00",12.87611225,"F","yes",0,0,1
"1149",10,"blindfold","blindfold",3,33,0,"20130815T134639",34.2,1.2,19,0,15.53,16,94,1,93,"35  32  26",-1,19.2,"8/15/13","9/29/00",12.87611225,"F","yes",0,0,1
"1150",10,"blindfold","blindfold",3,34,0,"20130815T134639",32.1,1.2,18,1,12.26,12.72,65,1,65,"22  31  12",-1,15.7,"8/15/13","9/29/00",12.87611225,"F","yes",0,0,1
"1151",10,"blindfold","blindfold",3,35,0,"20130815T134639",34.2,1.2,19,0,8.84,9.43,97,1,87,"30  34  23",-1,12.5,"8/15/13","9/29/00",12.87611225,"F","yes",0,0,1
"1152",10,"blindfold","blindfold",3,36,0,"20130815T134639",32.1,1.2,18,1,15.01,16.89,58,1,58,"4  22  32",-1,19.9,"8/15/13","9/29/00",12.87611225,"F","yes",0,0,1
"1153",10,"blindfold","blindfold",3,37,0,"20130815T134639",34.2,1.2,19,1,9.38,10.23,72,1,72,"18  34  20",-1,13.2,"8/15/13","9/29/00",12.87611225,"F","yes",0,0,1
"1236",10,"blindfold","blindfold",3,7,0,"20130815T134639",6.9,1.2,5,1,1.11,1.57,11,1,11,"1  7  3",-1,4.41,"8/15/13","9/29/00",12.87611225,"F","yes",0,0,1
"1237",10,"blindfold","blindfold",3,4,0,"20130815T134639",2.3,1.2,2,1,2.18,2.48,6,1,6,"3  2  1",-1,5.29,"8/15/13","9/29/00",12.87611225,"F","yes",0,0,1
"1239",10,"blindfold","blindfold",3,6,0,"20130815T134639",5.28,1.2,4,1,1.02,1.4,9,1,9,"3  4  2",-1,4.12,"8/15/13","9/29/00",12.87611225,"F","yes",0,0,1
"1241",10,"blindfold","blindfold",3,8,0,"20130815T134639",8.59,1.2,6,1,1.59,2.39,19,1,19,"8  4  7",-1,5.31,"8/15/13","9/29/00",12.87611225,"F","yes",0,0,1
"1242",10,"blindfold","blindfold",3,5,0,"20130815T134639",3.74,1.2,3,1,1.29,1.68,8,1,8,"2  4  2",-1,4.4,"8/15/13","9/29/00",12.87611225,"F","yes",0,0,1
"1245",10,"blindfold","blindfold",3,9,0,"20130815T134639",10.3,1.2,7,1,2.53,3.06,24,1,24,"6  9  9",-1,5.97,"8/15/13","9/29/00",12.87611225,"F","yes",0,0,1
"1187",10,"stillhands","stillhands",4,4,0,"20130815T135706",2.3,1.2,2,1,1.32,1.78,5,1,5,"2  1  2",-1,4.45,"8/15/13","9/29/00",12.87611225,"F","yes",0,0,1
"1188",10,"stillhands","stillhands",4,5,0,"20130815T135706",3.74,1.2,3,1,1.2,1.59,8,1,8,"2  4  2",-1,4.28,"8/15/13","9/29/00",12.87611225,"F","yes",0,0,1
"1189",10,"stillhands","stillhands",4,6,0,"20130815T135706",5.28,1.2,4,1,1.08,1.68,10,1,10,"4  3  3",-1,4.51,"8/15/13","9/29/00",12.87611225,"F","yes",0,0,1
"1190",10,"stillhands","stillhands",4,7,0,"20130815T135706",6.9,1.2,5,1,1.91,2.39,19,1,19,"7  7  5",-1,5.32,"8/15/13","9/29/00",12.87611225,"F","yes",0,0,1
"1191",10,"stillhands","stillhands",4,8,0,"20130815T135706",8.59,1.2,6,1,1.15,1.57,15,1,15,"8  6  1",-1,4.35,"8/15/13","9/29/00",12.87611225,"F","yes",0,0,1
"1192",10,"stillhands","stillhands",4,9,0,"20130815T135706",10.3,1.2,7,1,5.85,6.71,17,1,17,"3  10   4",-1,9.67,"8/15/13","9/29/00",12.87611225,"F","yes",0,0,1
"1193",10,"stillhands","stillhands",4,10,0,"20130815T135706",12.1,1.2,8,1,2.1,2.59,25,1,25,"11  12   2",-1,5.58,"8/15/13","9/29/00",12.87611225,"F","yes",0,0,1
"1194",10,"stillhands","stillhands",4,11,0,"20130815T135706",14,1.2,9,1,7.34,7.95,29,1,29,"6   9  14",-1,11.3,"8/15/13","9/29/00",12.87611225,"F","yes",0,0,1
"1195",10,"stillhands","stillhands",4,12,0,"20130815T135706",15.8,1.2,10,1,4.04,4.67,27,1,27,"8   3  16",-1,7.67,"8/15/13","9/29/00",12.87611225,"F","yes",0,0,1
"1196",10,"stillhands","stillhands",4,13,0,"20130815T135706",17.8,1.2,11,1,3.34,3.77,36,1,36,"2  19  15",-1,7.02,"8/15/13","9/29/00",12.87611225,"F","yes",0,0,1
"1197",10,"stillhands","stillhands",4,14,0,"20130815T135706",19.7,1.2,12,1,1.82,2.39,27,1,27,"5  19   3",-1,5.28,"8/15/13","9/29/00",12.87611225,"F","yes",0,0,1
"1198",10,"stillhands","stillhands",4,15,0,"20130815T135706",21.7,1.2,13,1,7.98,8.54,56,1,56,"22  21  13",-1,11.7,"8/15/13","9/29/00",12.87611225,"F","yes",0,0,1
"1199",10,"stillhands","stillhands",4,16,0,"20130815T135706",23.7,1.2,14,1,3.75,4.16,41,1,41,"24  10   7",-1,7.09,"8/15/13","9/29/00",12.87611225,"F","yes",0,0,1
"1200",10,"stillhands","stillhands",4,17,0,"20130815T135706",25.8,1.2,15,1,5.95,6.65,56,1,56,"25  21  10",-1,9.64,"8/15/13","9/29/00",12.87611225,"F","yes",0,0,1
"1201",10,"stillhands","stillhands",4,18,0,"20130815T135706",27.9,1.2,16,1,2.33,2.87,40,1,40,"3   8  29",-1,5.77,"8/15/13","9/29/00",12.87611225,"F","yes",0,0,1
"1202",10,"stillhands","stillhands",4,19,0,"20130815T135706",30,1.2,17,1,4.46,4.97,40,1,40,"4   7  29",-1,7.9,"8/15/13","9/29/00",12.87611225,"F","yes",0,0,1
"1203",10,"stillhands","stillhands",4,20,0,"20130815T135706",32.1,1.2,18,1,13.26,14.2,76,1,76,"32  15  29",-1,17.3,"8/15/13","9/29/00",12.87611225,"F","yes",0,0,1
"1204",10,"stillhands","stillhands",4,21,0,"20130815T135706",34.2,1.2,19,1,9.47,10.14,51,1,51,"15  34   2",-1,13,"8/15/13","9/29/00",12.87611225,"F","yes",0,0,1
"1205",10,"stillhands","stillhands",4,22,0,"20130815T135706",36.4,1.2,20,1,3.46,3.96,50,1,50,"35   4  11",-1,6.93,"8/15/13","9/29/00",12.87611225,"F","yes",0,0,1
"1206",10,"stillhands","stillhands",4,23,0,"20130815T135706",38.6,1.2,21,1,4.86,5.26,96,1,96,"31  25  40",-1,8.2,"8/15/13","9/29/00",12.87611225,"F","yes",0,0,1
"1207",10,"stillhands","stillhands",4,24,0,"20130815T135706",40.8,1.2,22,0,30,30.1,-1,1,70,"41  22   7",-1,33.1,"8/15/13","9/29/00",12.87611225,"F","yes",0,0,1
"1208",10,"stillhands","stillhands",4,25,0,"20130815T135706",38.6,1.2,21,1,4.19,5.06,87,1,87,"23  24  40",-1,8.05,"8/15/13","9/29/00",12.87611225,"F","yes",0,0,1
"1209",10,"stillhands","stillhands",4,26,0,"20130815T135706",40.8,1.2,22,1,5.38,5.87,74,1,74,"13  21  40",-1,8.87,"8/15/13","9/29/00",12.87611225,"F","yes",0,0,1
"1210",10,"stillhands","stillhands",4,27,0,"20130815T135706",43.1,1.2,23,1,9.28,9.83,96,1,96,"42  31  23",-1,13,"8/15/13","9/29/00",12.87611225,"F","yes",0,0,1
"1211",10,"stillhands","stillhands",4,28,0,"20130815T135706",45.3,1.2,24,1,2.05,2.59,59,1,59,"46  11   2",-1,5.69,"8/15/13","9/29/00",12.87611225,"F","yes",0,0,1
"1212",10,"stillhands","stillhands",4,29,0,"20130815T135706",47.6,1.2,25,1,5.32,6.14,94,1,94,"12  35  47",-1,9.15,"8/15/13","9/29/00",12.87611225,"F","yes",0,0,1
