subnum, condition, task, order, trial,interference,date,max,exponent,threshold,correct,rt1,rt2,r,addends,sum,digits,int_score,trial_time10,baseline,baseline,1,1,0,20130815T132407,3,1.20E+00,1,1,0.74,1.53,6,1,6,2  3  1,-1,8.23E+0010,baseline,baseline,1,2,0,20130815T132407,3,1.20E+00,1,1,1.17,1.77,7,1,7,1  3  3,-1,4.56E+0010,baseline,baseline,1,3,0,20130815T132407,3,1.20E+00,1,1,3.08,3.67,6,1,6,2  3  1,-1,6.41E+0010,baseline,baseline,1,4,0,20130815T132407,2.30E+00,1.20E+00,2,1,1.27,1.78,7,1,7,2  2  3,-1,4.52E+0010,baseline,baseline,1,5,0,20130815T132407,3.74E+00,1.20E+00,3,1,1.53,2.19,10,1,10,3  4  3,-1,5.09E+0010,baseline,baseline,1,6,0,20130815T132407,5.28E+00,1.20E+00,4,1,2.26,2.91,15,1,15,6  5  4,-1,5.85E+0010,baseline,baseline,1,7,0,20130815T132407,6.90E+00,1.20E+00,5,1,1.52,2.09,12,1,12,6  3  3,-1,4.89E+0010,baseline,baseline,1,8,0,20130815T132407,8.59E+00,1.20E+00,6,1,1.29,1.98,19,1,19,3  9  7,-1,4.89E+0010,baseline,baseline,1,9,0,20130815T132407,1.03E+01,1.20E+00,7,1,2.99,3.48,23,1,23,8  9  6,-1,6.35E+0010,baseline,baseline,1,10,0,20130815T132407,1.21E+01,1.20E+00,8,1,1.2,1.78,33,1,33,11  11  11,-1,4.80E+0010,baseline,baseline,1,11,0,20130815T132407,1.40E+01,1.20E+00,9,1,3.51,4.57,24,1,24,3  13   8,-1,7.61E+0010,baseline,baseline,1,12,0,20130815T132407,1.58E+01,1.20E+00,10,1,4.69,5.25,35,1,35,16  14   5,-1,8.63E+0010,baseline,baseline,1,13,0,20130815T132407,1.78E+01,1.20E+00,11,1,1.55,2.19,39,1,39,17  17   5,-1,5.68E+0010,baseline,baseline,1,14,0,20130815T132407,1.97E+01,1.20E+00,12,1,2.22,3.06,34,1,34,7  19   8,-1,6.14E+0010,baseline,baseline,1,15,0,20130815T132407,2.17E+01,1.20E+00,13,1,3.39,3.96,52,1,52,23  22   7,-1,7.16E+0010,baseline,baseline,1,16,0,20130815T132407,2.37E+01,1.20E+00,14,1,5.45,6.26,41,1,41,5  25  11,-1,9.26E+0010,baseline,baseline,1,17,0,20130815T132407,2.58E+01,1.20E+00,15,1,6.51,7.05,60,1,60,27  21  12,-1,1.01E+0110,baseline,baseline,1,18,0,20130815T132407,2.79E+01,1.20E+00,16,1,6.34,7.24,68,1,68,29  26  13,-1,1.04E+0110,baseline,baseline,1,19,0,20130815T132407,3.00E+01,1.20E+00,17,1,2.47,3.06,65,1,65,10  30  25,-1,6.10E+0010,baseline,baseline,1,20,0,20130815T132407,3.21E+01,1.20E+00,18,0,7.28,7.95,41,1,51,15  32   4,-1,1.10E+0110,baseline,baseline,1,21,0,20130815T132407,3.00E+01,1.20E+00,17,1,7.66,8.43,72,1,72,21  29  22,-1,1.16E+0110,baseline,baseline,1,22,0,20130815T132407,3.21E+01,1.20E+00,18,0,5.43,6.35,51,1,81,18  31  32,-1,9.47E+0010,baseline,baseline,1,23,0,20130815T132407,3.00E+01,1.20E+00,17,1,12.93,13.8,57,1,57,29   9  19,-1,1.68E+0110,baseline,baseline,1,24,0,20130815T132407,3.21E+01,1.20E+00,18,1,6.44,7.05,82,1,82,32  31  19,-1,1.01E+0110,baseline,baseline,1,25,0,20130815T132407,3.42E+01,1.20E+00,19,1,6.99,7.75,82,1,82,35  25  22,-1,1.09E+0110,baseline,baseline,1,26,0,20130815T132407,3.64E+01,1.20E+00,20,0,30,30.1,-1,1,59,9  35  15,-1,3.32E+0110,baseline,baseline,1,27,0,20130815T132407,3.42E+01,1.20E+00,19,1,5.61,6.24,63,1,63,33  23   7,-1,9.40E+0010,baseline,baseline,1,28,0,20130815T132407,3.64E+01,1.20E+00,20,1,8.48,9.23,76,1,76,36  26  14,-1,1.25E+0110,baseline,baseline,1,29,0,20130815T132407,3.86E+01,1.20E+00,21,1,1.8,2.59,50,1,50,8  40   2,-1,5.23E+0010,baseline,baseline,1,30,0,20130815T132407,4.08E+01,1.20E+00,22,1,5.21,5.91,67,1,67,6  20  41,-1,9.03E+0010,baseline,baseline,1,31,0,20130815T132407,4.31E+01,1.20E+00,23,1,8.1,8.74,76,1,76,9  25  42,-1,1.18E+0110,baseline,baseline,1,32,0,20130815T132407,4.53E+01,1.20E+00,24,1,2.19,2.79,86,1,86,4  46  36,-1,6.20E+0010,baseline,baseline,1,33,0,20130815T132407,4.76E+01,1.20E+00,25,1,2.6,3.66,104,1,104,49  11  44,-1,6.91E+0010,baseline,baseline,1,34,0,20130815T132407,4.99E+01,1.20E+00,26,1,14.8,15.88,118,1,118,51  32  35,-1,1.90E+0110,baseline,baseline,1,35,0,20130815T132407,5.22E+01,1.20E+00,27,0,30,30.1,-1,1,91,2  51  38,-1,3.31E+0110,baseline,baseline,1,36,0,20130815T132407,4.99E+01,1.20E+00,26,1,10.44,11.43,130,1,130,29  51  50,-1,1.43E+0110,baseline,baseline,1,37,0,20130815T132407,5.22E+01,1.20E+00,27,1,3.51,4.46,114,1,114,51  48  15,-1,7.68E+0010,baseline,baseline,1,38,0,20130815T132407,5.45E+01,1.20E+00,28,1,15.8,16.69,129,1,129,49  55  25,-1,2.00E+0110,baseline,baseline,1,39,0,20130815T132407,5.69E+01,1.20E+00,29,1,4.43,4.97,99,1,99,10  31  58,-1,8.07E+0010,baseline,baseline,1,40,0,20130815T132407,5.92E+01,1.20E+00,30,1,5.66,6.84,154,1,154,60  45  49,-1,1.02E+0110,baseline,baseline,1,41,0,20130815T132407,6.16E+01,1.20E+00,31,0,30,30.1,-1,1,131,61  13  57,-1,3.36E+0111,baseline,baseline,1,1,0,20130819T101803,3,1.20E+00,1,0,1.68,8.59,11,1,8,2  3  3,-1,1.16E+0111,baseline,baseline,1,2,0,20130819T101803,3,1.20E+00,1,1,3.27,4.28,7,1,7,2  2  3,-1,6.79E+0011,baseline,baseline,1,3,0,20130819T101803,3,1.20E+00,1,1,1.06,1.77,6,1,6,1  3  2,-1,4.35E+0011,baseline,baseline,1,4,0,20130819T101803,2.30E+00,1.20E+00,2,1,0.65,1.1,3,1,3,1  1  1,-1,3.66E+0011,baseline,baseline,1,5,0,20130819T101803,3.74E+00,1.20E+00,3,1,1.67,2.08,11,1,11,2  4  5,-1,5.00E+0011,baseline,baseline,1,6,0,20130819T101803,5.28E+00,1.20E+00,4,1,0.45,0.79,7,1,7,4  2  1,-1,3.43E+0011,baseline,baseline,1,7,0,20130819T101803,6.90E+00,1.20E+00,5,1,0.63,1.09,10,1,10,2  6  2,-1,3.75E+0011,baseline,baseline,1,8,0,20130819T101803,8.59E+00,1.20E+00,6,1,1.28,1.78,15,1,15,6  1  8,-1,4.57E+0011,baseline,baseline,1,9,0,20130819T101803,1.03E+01,1.20E+00,7,1,4.24,4.67,24,1,24,11   5   8,-1,7.46E+0011,baseline,baseline,1,10,0,20130819T101803,1.21E+01,1.20E+00,8,1,5.25,5.77,27,1,27,6  13   8,-1,8.66E+0011,baseline,baseline,1,11,0,20130819T101803,1.40E+01,1.20E+00,9,1,8.53,9.24,34,1,34,14   8  12,-1,1.21E+0111,baseline,baseline,1,12,0,20130819T101803,1.58E+01,1.20E+00,10,1,3.22,3.58,22,1,22,3  15   4,-1,6.65E+0011,baseline,baseline,1,13,0,20130819T101803,1.78E+01,1.20E+00,11,1,2.42,3.06,38,1,38,3  17  18,-1,6.18E+0011,baseline,baseline,1,14,0,20130819T101803,1.97E+01,1.20E+00,12,1,1.78,2.58,29,1,29,3   5  21,-1,5.62E+0011,baseline,baseline,1,15,0,20130819T101803,2.17E+01,1.20E+00,13,1,5.35,6.15,60,1,60,20  17  23,-1,9.32E+0011,baseline,baseline,1,16,0,20130819T101803,2.37E+01,1.20E+00,14,1,2.92,3.87,46,1,46,20   1  25,-1,6.84E+0011,baseline,baseline,1,17,0,20130819T101803,2.58E+01,1.20E+00,15,1,4.44,4.97,60,1,60,9  26  25,-1,8.16E+0011,baseline,baseline,1,18,0,20130819T101803,2.79E+01,1.20E+00,16,1,11.26,11.82,66,1,66,16  29  21,-1,1.50E+0111,baseline,baseline,1,19,0,20130819T101803,3.00E+01,1.20E+00,17,1,0.75,1.19,60,1,60,29   1  30,-1,3.98E+0011,baseline,baseline,1,20,0,20130819T101803,3.21E+01,1.20E+00,18,1,10.33,11.32,76,1,76,32  13  31,-1,1.45E+0111,baseline,baseline,1,21,0,20130819T101803,3.42E+01,1.20E+00,19,1,5.2,5.67,47,1,47,3  33  11,-1,8.57E+0011,baseline,baseline,1,22,0,20130819T101803,3.64E+01,1.20E+00,20,0,6.24,6.66,47,1,46,9   2  35,-1,9.58E+0011,baseline,baseline,1,23,0,20130819T101803,3.42E+01,1.20E+00,19,0,17.19,17.68,67,1,72,35  13  24,-1,2.08E+0111,baseline,baseline,1,24,0,20130819T101803,3.21E+01,1.20E+00,18,1,18.49,19.16,70,1,70,12  25  33,-1,2.22E+0111,baseline,baseline,1,25,0,20130819T101803,3.42E+01,1.20E+00,19,1,6.46,6.95,47,1,47,33   5   9,-1,9.91E+0011,baseline,baseline,1,26,0,20130819T101803,3.64E+01,1.20E+00,20,1,10.18,11.12,83,1,83,36  33  14,-1,1.43E+0111,baseline,baseline,1,27,0,20130819T101803,3.86E+01,1.20E+00,21,1,6.56,7.06,68,1,68,16  12  40,-1,9.95E+0011,baseline,baseline,1,28,0,20130819T101803,4.08E+01,1.20E+00,22,1,11.15,11.72,86,1,86,42   9  35,-1,1.48E+0111,baseline,baseline,1,29,0,20130819T101803,4.31E+01,1.20E+00,23,0,23.36,24.04,97,1,87,12  32  43,-1,2.71E+0111,baseline,baseline,1,30,0,20130819T101803,4.08E+01,1.20E+00,22,1,17.65,18.18,63,1,63,11  41  11,-1,2.11E+0111,baseline,baseline,1,31,0,20130819T101803,4.31E+01,1.20E+00,23,1,16.32,16.88,68,1,68,7  44  17,-1,2.02E+0111,baseline,baseline,1,32,0,20130819T101803,4.53E+01,1.20E+00,24,1,27.41,28.11,100,1,100,44  17  39,-1,3.14E+0111,baseline,baseline,1,33,0,20130819T101803,4.76E+01,1.20E+00,25,0,10.2,10.71,92,1,112,47  42  23,-1,1.39E+0111,baseline,baseline,1,34,0,20130819T101803,4.53E+01,1.20E+00,24,1,19.72,21.06,84,1,84,10  46  28,-1,2.43E+0111,baseline,baseline,1,35,0,20130819T101803,4.76E+01,1.20E+00,25,1,20.1,22.15,108,1,108,17  43  48,-1,2.54E+0111,baseline,baseline,1,36,0,20130819T101803,4.99E+01,1.20E+00,26,1,10.76,11.81,93,1,93,49  12  32,-1,1.49E+0111,baseline,baseline,1,37,0,20130819T101803,5.22E+01,1.20E+00,27,0,20.35,22.65,133,1,135,41  53  41,-1,2.58E+0112,baseline,baseline,1,1,0,20140129T172712,3,1.20E+00,1,1,3.24,3.84,5,1,5,2  1  2,-1,7.54E+0012,baseline,baseline,1,2,0,20140129T172712,3,1.20E+00,1,1,1.69,2.28,7,1,7,3  2  2,-1,4.72E+0012,baseline,baseline,1,3,0,20140129T172712,3,1.20E+00,1,1,2.13,2.77,10,1,10,3  3  4,-1,5.60E+0012,baseline,baseline,1,4,0,20140129T172712,2.30E+00,1.20E+00,2,1,1.06,1.4,3,1,3,1  1  1,-1,3.90E+0012,baseline,baseline,1,5,0,20140129T172712,3.74E+00,1.20E+00,3,1,1.59,2.09,8,1,8,2  1  5,-1,4.79E+0012,baseline,baseline,1,6,0,20140129T172712,5.28E+00,1.20E+00,4,1,2.2,2.78,14,1,14,5  4  5,-1,5.67E+0012,baseline,baseline,1,7,0,20140129T172712,6.90E+00,1.20E+00,5,1,1.49,2.18,17,1,17,8  4  5,-1,5.02E+0012,baseline,baseline,1,8,0,20140129T172712,8.59E+00,1.20E+00,6,1,4.42,4.97,25,1,25,7  9  9,-1,7.88E+0012,baseline,baseline,1,9,0,20140129T172712,1.03E+01,1.20E+00,7,1,1.3,1.88,20,1,20,9   1  10,-1,4.60E+0012,baseline,baseline,1,10,0,20140129T172712,1.21E+01,1.20E+00,8,1,6.81,7.44,30,1,30,9   9  12,-1,1.03E+0112,baseline,baseline,1,11,0,20140129T172712,1.40E+01,1.20E+00,9,1,6.86,7.35,33,1,33,13   6  14,-1,1.06E+0112,baseline,baseline,1,12,0,20140129T172712,1.58E+01,1.20E+00,10,1,3.72,4.56,37,1,37,17  10  10,-1,7.45E+0012,baseline,baseline,1,13,0,20140129T172712,1.78E+01,1.20E+00,11,1,18.91,19.59,39,1,39,11  10  18,-1,2.25E+0112,baseline,baseline,1,14,0,20140129T172712,1.97E+01,1.20E+00,12,1,3.86,4.47,34,1,34,1  21  12,-1,7.29E+0012,baseline,baseline,1,15,0,20140129T172712,2.17E+01,1.20E+00,13,0,16.11,16.68,63,1,62,22  19  21,-1,1.99E+0112,baseline,baseline,1,16,0,20140129T172712,1.97E+01,1.20E+00,12,1,5.55,6.55,35,1,35,13  20   2,-1,9.26E+0012,baseline,baseline,1,17,0,20140129T172712,2.17E+01,1.20E+00,13,1,17.55,19.17,54,1,54,13  18  23,-1,2.24E+0112,baseline,baseline,1,18,0,20140129T172712,2.37E+01,1.20E+00,14,1,11.89,12.5,66,1,66,18  23  25,-1,1.57E+0112,baseline,baseline,1,19,0,20140129T172712,2.58E+01,1.20E+00,15,1,12.72,13.3,43,1,43,2  15  26,-1,1.63E+0112,baseline,baseline,1,20,0,20140129T172712,2.79E+01,1.20E+00,16,1,8.77,9.44,48,1,48,5  16  27,-1,1.25E+0112,baseline,baseline,1,21,0,20140129T172712,3.00E+01,1.20E+00,17,1,15.06,15.7,54,1,54,30   8  16,-1,1.85E+0112,baseline,baseline,1,22,0,20140129T172712,3.21E+01,1.20E+00,18,0,30,30.1,-1,1,77,19  31  27,-1,3.32E+0112,baseline,baseline,1,23,0,20140129T172712,3.00E+01,1.20E+00,17,1,13.76,14.41,74,1,74,29  29  16,-1,1.74E+0112,baseline,baseline,1,24,0,20140129T172712,3.21E+01,1.20E+00,18,1,16.29,16.98,79,1,79,33  16  30,-1,2.00E+0112,baseline,baseline,1,25,0,20140129T172712,3.42E+01,1.20E+00,19,1,3.08,3.66,45,1,45,33   1  11,-1,6.47E+0012,baseline,baseline,1,26,0,20140129T172712,3.64E+01,1.20E+00,20,0,12.42,13.01,74,1,84,33  16  35,-1,1.61E+0112,baseline,baseline,1,27,0,20140129T172712,3.42E+01,1.20E+00,19,1,23.06,23.63,88,1,88,29  34  25,-1,2.67E+0112,baseline,baseline,1,28,0,20140129T172712,3.64E+01,1.20E+00,20,1,13.63,14.31,70,1,70,37  17  16,-1,1.76E+0112,baseline,baseline,1,29,0,20140129T172712,3.86E+01,1.20E+00,21,1,11.95,12.61,61,1,61,13  38  10,-1,1.56E+0112,baseline,baseline,1,30,0,20140129T172712,4.08E+01,1.20E+00,22,1,7.93,8.54,61,1,61,42  16   3,-1,1.16E+0112,baseline,baseline,1,31,0,20140129T172712,4.31E+01,1.20E+00,23,1,5.21,6.15,60,1,60,10   8  42,-1,8.86E+0012,baseline,baseline,1,32,0,20140129T172712,4.53E+01,1.20E+00,24,0,17.64,18.29,59,1,69,15   8  46,-1,2.15E+0112,baseline,baseline,1,33,0,20140129T172712,4.31E+01,1.20E+00,23,0,21.79,22.66,104,1,102,42  29  31,-1,2.56E+0112,baseline,baseline,1,34,0,20140129T172712,4.08E+01,1.20E+00,22,1,8.6,9.33,67,1,67,40  11  16,-1,1.22E+0113,baseline,baseline,2,1,0,20140207T160651,3,1.20E+00,1,1,0.91,1.27,6,1,6,2  3  1,-1,4.17E+0013,baseline,baseline,2,2,0,20140207T160651,3,1.20E+00,1,1,1.19,1.57,6,1,6,1  2  3,-1,4.23E+0013,baseline,baseline,2,3,0,20140207T160651,3,1.20E+00,1,1,1.94,2.38,8,1,8,2  3  3,-1,5.11E+0013,baseline,baseline,2,4,0,20140207T160651,2.30E+00,1.20E+00,2,1,1.09,1.48,5,1,5,1  1  3,-1,4.27E+0013,baseline,baseline,2,5,0,20140207T160651,3.74E+00,1.20E+00,3,1,1.29,1.89,10,1,10,2  3  5,-1,4.73E+0013,baseline,baseline,2,6,0,20140207T160651,5.28E+00,1.20E+00,4,1,1.22,1.58,6,1,6,1  4  1,-1,4.32E+0013,baseline,baseline,2,7,0,20140207T160651,6.90E+00,1.20E+00,5,1,0.97,1.39,9,1,9,6  2  1,-1,4.13E+0013,baseline,baseline,2,8,0,20140207T160651,8.59E+00,1.20E+00,6,1,3.41,3.97,16,1,16,6  2  8,-1,6.66E+0013,baseline,baseline,2,9,0,20140207T160651,1.03E+01,1.20E+00,7,1,3.83,4.37,26,1,26,9  11   6,-1,7.26E+0013,baseline,baseline,2,10,0,20140207T160651,1.21E+01,1.20E+00,8,1,4,5.36,30,1,30,9  12   9,-1,8.23E+0013,baseline,baseline,2,11,0,20140207T160651,1.40E+01,1.20E+00,9,0,7.8,8.44,31,1,37,13  12  12,-1,1.14E+0113,baseline,baseline,2,12,0,20140207T160651,1.21E+01,1.20E+00,8,1,2.59,3.27,23,1,23,3   7  13,-1,6.37E+0013,baseline,baseline,2,13,0,20140207T160651,1.40E+01,1.20E+00,9,1,8.2,8.84,21,1,21,2   6  13,-1,1.16E+0113,baseline,baseline,2,14,0,20140207T160651,1.58E+01,1.20E+00,10,0,3.59,4.27,43,1,45,16  16  13,-1,7.49E+0013,baseline,baseline,2,15,0,20140207T160651,1.40E+01,1.20E+00,9,1,5.54,6.16,23,1,23,1  15   7,-1,9.06E+0013,baseline,baseline,2,16,0,20140207T160651,1.58E+01,1.20E+00,10,1,8.37,8.94,32,1,32,3  16  13,-1,1.20E+0113,baseline,baseline,2,17,0,20140207T160651,1.78E+01,1.20E+00,11,0,2.66,3.28,16,1,26,18   4   4,-1,6.25E+0013,baseline,baseline,2,18,0,20140207T160651,1.58E+01,1.20E+00,10,0,3.21,3.76,32,1,38,16  10  12,-1,6.62E+0013,baseline,baseline,2,19,0,20140207T160651,1.40E+01,1.20E+00,9,0,6.09,6.74,30,1,29,10   5  14,-1,9.73E+0013,baseline,baseline,2,20,0,20140207T160651,1.21E+01,1.20E+00,8,1,1.51,2.08,19,1,19,5   1  13,-1,5.04E+0013,baseline,baseline,2,21,0,20140207T160651,1.40E+01,1.20E+00,9,1,3.64,4.17,25,1,25,13  10   2,-1,6.86E+0013,baseline,baseline,2,22,0,20140207T160651,1.58E+01,1.20E+00,10,1,2.26,2.98,27,1,27,2  16   9,-1,5.80E+0013,baseline,baseline,2,23,0,20140207T160651,1.78E+01,1.20E+00,11,0,10.03,10.72,45,1,53,18  17  18,-1,1.39E+0113,baseline,baseline,2,24,0,20140207T160651,1.58E+01,1.20E+00,10,0,2.73,3.48,28,1,32,14  17   1,-1,6.52E+0013,baseline,baseline,2,25,0,20140207T160651,1.40E+01,1.20E+00,9,1,4.05,4.97,29,1,29,9   6  14,-1,7.96E+0013,baseline,baseline,2,26,0,20140207T160651,1.58E+01,1.20E+00,10,1,11.45,12.11,35,1,35,13   6  16,-1,1.52E+0113,baseline,baseline,2,27,0,20140207T160651,1.78E+01,1.20E+00,11,0,3.9,4.57,35,1,31,17   4  10,-1,7.73E+0013,baseline,baseline,2,28,0,20140207T160651,1.58E+01,1.20E+00,10,0,2.24,2.94,26,1,36,14  17   5,-1,6.46E+0013,baseline,baseline,2,29,0,20140207T160651,1.40E+01,1.20E+00,9,1,5.33,6.26,37,1,37,13  11  13,-1,9.50E+0013,baseline,baseline,2,30,0,20140207T160651,1.58E+01,1.20E+00,10,1,3.48,4.07,32,1,32,16   2  14,-1,7.15E+0013,baseline,baseline,2,31,0,20140207T160651,1.78E+01,1.20E+00,11,1,11.08,11.92,38,1,38,15   4  19,-1,1.51E+0113,baseline,baseline,2,32,0,20140207T160651,1.97E+01,1.20E+00,12,1,17.65,18.28,50,1,50,21  10  19,-1,2.14E+0113,baseline,baseline,2,33,0,20140207T160651,2.17E+01,1.20E+00,13,0,11.26,11.9,32,1,42,19  21   2,-1,1.48E+0113,baseline,baseline,2,34,0,20140207T160651,1.97E+01,1.20E+00,12,0,8.35,9.13,42,1,52,19  13  20,-1,1.22E+0113,baseline,baseline,2,35,0,20140207T160651,1.78E+01,1.20E+00,11,1,6.74,7.44,39,1,39,18  18   3,-1,1.04E+0113,baseline,baseline,2,36,0,20140207T160651,1.97E+01,1.20E+00,12,1,9.05,10.03,37,1,37,9   7  21,-1,1.31E+0113,baseline,baseline,2,37,0,20140207T160651,2.17E+01,1.20E+00,13,1,5.73,6.45,28,1,28,21   6   1,-1,9.34E+0013,baseline,baseline,2,38,0,20140207T160651,2.37E+01,1.20E+00,14,1,1.96,2.58,30,1,30,24   4   2,-1,5.48E+0013,baseline,baseline,2,39,0,20140207T160651,2.58E+01,1.20E+00,15,0,2.9,3.57,31,1,53,26  23   4,-1,6.81E+0013,baseline,baseline,2,40,0,20140207T160651,2.37E+01,1.20E+00,14,0,14.82,15.49,52,1,56,19  25  12,-1,1.85E+0113,baseline,baseline,2,41,0,20140207T160651,2.17E+01,1.20E+00,13,0,3.64,4.47,37,1,47,21  20   6,-1,7.53E+0013,baseline,baseline,2,42,0,20140207T160651,1.97E+01,1.20E+00,12,0,6.49,7.35,37,1,47,8  20  19,-1,1.03E+0113,baseline,baseline,2,43,0,20140207T160651,1.78E+01,1.20E+00,11,1,15.11,16.11,38,1,38,15  18   5,-1,1.93E+0113,baseline,baseline,2,44,0,20140207T160651,1.97E+01,1.20E+00,12,1,11.87,12.51,45,1,45,21   7  17,-1,1.57E+0114,baseline,baseline,1,1,0,2/25/14 15:04,3,1.20E+00,1,1,3.17,3.93,9,1,9,2  4  3,-1,8.63E+0014,baseline,baseline,1,2,0,2/25/14 15:04,3,1.20E+00,1,1,3.68,4.4,7,1,7,2  1  4,-1,7.32E+0014,baseline,baseline,1,3,0,2/25/14 15:04,3,1.20E+00,1,1,2.13,2.91,6,1,6,2  2  2,-1,5.47E+0014,baseline,baseline,1,4,0,2/25/14 15:04,2.30E+00,1.20E+00,2,1,2.08,2.91,4,1,4,1  2  1,-1,5.67E+0014,baseline,baseline,1,5,0,2/25/14 15:04,3.74E+00,1.20E+00,3,1,3.13,3.9,6,1,6,3  2  1,-1,6.75E+0014,baseline,baseline,1,6,0,2/25/14 15:04,5.28E+00,1.20E+00,4,1,1.97,2.4,7,1,7,5  1  1,-1,5.45E+0014,baseline,baseline,1,7,0,2/25/14 15:04,6.90E+00,1.20E+00,5,1,2.98,3.91,14,1,14,4  3  7,-1,7.23E+0014,baseline,baseline,1,8,0,2/25/14 15:04,8.59E+00,1.20E+00,6,1,1.61,2.39,13,1,13,3  2  8,-1,5.34E+0014,baseline,baseline,1,9,0,2/25/14 15:04,1.03E+01,1.20E+00,7,1,1.5,2.4,21,1,21,6   4  11,-1,5.77E+0014,baseline,baseline,1,10,0,2/25/14 15:04,1.21E+01,1.20E+00,8,1,2.65,3.39,23,1,23,3   8  12,-1,6.41E+0014,baseline,baseline,1,11,0,2/25/14 15:04,1.40E+01,1.20E+00,9,1,1.09,1.9,28,1,28,15   5   8,-1,5.25E+0014,baseline,baseline,1,12,0,2/25/14 15:04,1.58E+01,1.20E+00,10,1,4.3,4.92,32,1,32,15  16   1,-1,8.37E+0014,baseline,baseline,1,13,0,2/25/14 15:04,1.78E+01,1.20E+00,11,0,6.77,7.42,39,1,49,13  19  17,-1,1.11E+0114,baseline,baseline,1,14,0,2/25/14 15:04,1.58E+01,1.20E+00,10,1,3.69,4.87,40,1,40,13  10  17,-1,8.43E+0014,baseline,baseline,1,15,0,2/25/14 15:04,1.78E+01,1.20E+00,11,1,6.74,7.91,39,1,39,18  15   6,-1,1.14E+0114,baseline,baseline,1,16,0,2/25/14 15:04,1.97E+01,1.20E+00,12,1,9.3,10.42,37,1,37,15   3  19,-1,1.39E+0114,baseline,baseline,1,17,0,2/25/14 15:04,2.17E+01,1.20E+00,13,1,4.84,5.91,49,1,49,22  18   9,-1,9.39E+0014,baseline,baseline,1,18,0,2/25/14 15:04,2.37E+01,1.20E+00,14,1,9.38,10.41,47,1,47,8  15  24,-1,1.37E+0114,baseline,baseline,1,19,0,2/25/14 15:04,2.58E+01,1.20E+00,15,1,7.04,7.91,44,1,44,10  27   7,-1,1.12E+0114,baseline,baseline,1,20,0,2/25/14 15:04,2.79E+01,1.20E+00,16,1,10.19,11.4,73,1,73,24  29  20,-1,1.48E+0114,baseline,baseline,1,21,0,2/25/14 15:04,3.00E+01,1.20E+00,17,1,3.99,4.91,85,1,85,30  25  30,-1,8.28E+0014,baseline,baseline,1,22,0,2/25/14 15:04,3.21E+01,1.20E+00,18,1,7.95,8.92,83,1,83,30  21  32,-1,1.24E+0114,baseline,baseline,1,23,0,2/25/14 15:04,3.42E+01,1.20E+00,19,0,13.57,14.42,73,1,89,28  33  28,-1,1.77E+0114,baseline,baseline,1,24,0,2/25/14 15:04,3.21E+01,1.20E+00,18,1,8.41,12.91,47,1,47,2  31  14,-1,1.62E+0114,baseline,baseline,1,25,0,2/25/14 15:04,3.42E+01,1.20E+00,19,1,19.12,19.91,71,1,71,27  11  33,-1,2.34E+0114,baseline,baseline,1,26,0,2/25/14 15:04,3.64E+01,1.20E+00,20,0,15,15.92,61,1,63,2  35  26,-1,1.93E+0114,baseline,baseline,1,27,0,2/25/14 15:04,3.42E+01,1.20E+00,19,1,5.46,6.42,86,1,86,23  33  30,-1,9.90E+0014,baseline,baseline,1,28,0,2/25/14 15:04,3.64E+01,1.20E+00,20,1,10.69,11.9,72,1,72,36  28   8,-1,1.52E+0114,baseline,baseline,1,29,0,2/25/14 15:04,3.86E+01,1.20E+00,21,1,5.46,6.41,91,1,91,38  21  32,-1,1.00E+0114,baseline,baseline,1,30,0,2/25/14 15:04,4.08E+01,1.20E+00,22,1,4.13,4.92,45,1,45,2  42   1,-1,8.05E+0014,baseline,baseline,1,31,0,2/25/14 15:04,4.31E+01,1.20E+00,23,1,8.34,9.41,88,1,88,42  21  25,-1,1.30E+0114,baseline,baseline,1,32,0,2/25/14 15:04,4.53E+01,1.20E+00,24,1,15.23,15.92,74,1,74,15  45  14,-1,1.97E+0114,baseline,baseline,1,33,0,2/25/14 15:04,4.76E+01,1.20E+00,25,0,18.91,19.91,82,1,103,33  47  23,-1,2.36E+0114,baseline,baseline,1,34,0,2/25/14 15:04,4.53E+01,1.20E+00,24,0,18.8,19.91,123,1,126,45  37  44,-1,2.38E+0114,baseline,baseline,1,35,0,2/25/14 15:04,4.31E+01,1.20E+00,23,1,6.36,7.41,76,1,76,7  43  26,-1,1.11E+0114,baseline,baseline,1,36,0,2/25/14 15:04,4.53E+01,1.20E+00,24,0,30,30.43,-1,1,93,28  19  46,-1,3.41E+0114,baseline,baseline,1,37,0,2/25/14 15:04,4.31E+01,1.20E+00,23,1,8.56,9.4,81,1,81,3  34  44,-1,1.31E+0114,baseline,baseline,1,38,0,2/25/14 15:04,4.53E+01,1.20E+00,24,1,8.31,8.91,66,1,66,44  18   4,-1,1.26E+0115,baseline,baseline,3,1,0,20140410T170431,3,1.20E+00,1,1,2.82,3.28,8,1,8,2  3  3,-1,6.17E+0015,baseline,baseline,3,2,0,20140410T170431,3,1.20E+00,1,1,2.08,2.58,8,1,8,2  4  2,-1,5.15E+0015,baseline,baseline,3,3,0,20140410T170431,3,1.20E+00,1,1,4.74,5.16,7,1,7,1  3  3,-1,7.89E+0015,baseline,baseline,3,4,0,20140410T170431,2.30E+00,1.20E+00,2,1,3.29,3.67,6,1,6,3  1  2,-1,6.21E+0015,baseline,baseline,3,5,0,20140410T170431,3.74E+00,1.20E+00,3,1,3.39,3.87,9,1,9,3  4  2,-1,6.56E+0015,baseline,baseline,3,6,0,20140410T170431,5.28E+00,1.20E+00,4,1,5.08,5.47,9,1,9,3  2  4,-1,8.13E+0015,baseline,baseline,3,7,0,20140410T170431,6.90E+00,1.20E+00,5,1,3.94,4.86,12,1,12,1  3  8,-1,7.54E+0015,baseline,baseline,3,8,0,20140410T170431,8.59E+00,1.20E+00,6,1,6.94,7.65,17,1,17,7  9  1,-1,1.04E+0115,baseline,baseline,3,9,0,20140410T170431,1.03E+01,1.20E+00,7,1,3.05,3.57,20,1,20,10   8   2,-1,6.18E+0015,baseline,baseline,3,10,0,20140410T170431,1.21E+01,1.20E+00,8,1,5.53,6.16,29,1,29,12  12   5,-1,9.00E+0015,baseline,baseline,3,11,0,20140410T170431,1.40E+01,1.20E+00,9,1,4.48,5.06,28,1,28,14  13   1,-1,8.08E+0015,baseline,baseline,3,12,0,20140410T170431,1.58E+01,1.20E+00,10,1,13.06,13.6,44,1,44,15  16  13,-1,1.68E+0115,baseline,baseline,3,13,0,20140410T170431,1.78E+01,1.20E+00,11,0,12.07,12.72,26,1,30,4  18   8,-1,1.57E+0115,baseline,baseline,3,14,0,20140410T170431,1.58E+01,1.20E+00,10,1,4.47,4.95,26,1,26,2  16   8,-1,7.63E+0015,baseline,baseline,3,15,0,20140410T170431,1.78E+01,1.20E+00,11,1,17.57,18.39,38,1,38,19   5  14,-1,2.15E+0115,baseline,baseline,3,16,0,20140410T170431,1.97E+01,1.20E+00,12,1,17.81,18.68,42,1,42,19  11  12,-1,2.15E+0115,baseline,baseline,3,17,0,20140410T170431,2.17E+01,1.20E+00,13,1,15.96,16.68,35,1,35,3  21  11,-1,1.96E+0115,baseline,baseline,3,18,0,20140410T170431,2.37E+01,1.20E+00,14,1,22.2,22.94,43,1,43,12   6  25,-1,2.59E+0115,baseline,baseline,3,19,0,20140410T170431,2.58E+01,1.20E+00,15,1,8.05,8.94,40,1,40,26  13   1,-1,1.19E+0115,baseline,baseline,3,20,0,20140410T170431,2.79E+01,1.20E+00,16,1,16.65,17.19,55,1,55,21   5  29,-1,2.02E+0115,baseline,baseline,3,21,0,20140410T170431,3.00E+01,1.20E+00,17,1,23.27,23.85,68,1,68,22  15  31,-1,2.70E+0115,baseline,baseline,3,22,0,20140410T170431,3.21E+01,1.20E+00,18,0,30,30.09,-1,1,62,33  19  10,-1,3.30E+0115,baseline,baseline,3,23,0,20140410T170431,3.00E+01,1.20E+00,17,0,26.15,26.81,67,1,66,30  22  14,-1,2.99E+0115,baseline,baseline,3,24,0,20140410T170431,2.79E+01,1.20E+00,16,1,6.58,7.25,53,1,53,3  21  29,-1,1.02E+0115,baseline,baseline,3,25,0,20140410T170431,3.00E+01,1.20E+00,17,1,19.95,20.66,72,1,72,30  18  24,-1,2.37E+0115,baseline,baseline,3,26,0,20140410T170431,3.21E+01,1.20E+00,18,1,10.41,11.13,64,1,64,2  30  32,-1,1.39E+0115,baseline,baseline,3,27,0,20140410T170431,3.42E+01,1.20E+00,19,0,30,30.09,-1,1,95,33  34  28,-1,3.31E+0115,baseline,baseline,3,28,0,20140410T170431,3.21E+01,1.20E+00,18,0,30,30.1,-1,1,78,32  19  27,-1,3.32E+0115,baseline,baseline,3,29,0,20140410T170431,3.00E+01,1.20E+00,17,0,12.21,13.01,62,1,61,30  24   7,-1,1.60E+0115,baseline,baseline,3,30,0,20140410T170431,2.79E+01,1.20E+00,16,0,21.96,22.95,64,1,74,28  26  20,-1,2.59E+0116,baseline,baseline,4,1,0,20140417T111639,3,1.20E+00,1,0,17.69,18.1,8,1,7,2  3  2,-1,2.09E+0116,baseline,baseline,4,2,0,20140417T111639,3,1.20E+00,1,1,5.05,5.46,5,1,5,1  1  3,-1,8.16E+0016,baseline,baseline,4,3,0,20140417T111639,3,1.20E+00,1,1,2.43,2.88,4,1,4,1  1  2,-1,5.43E+0016,baseline,baseline,4,4,0,20140417T111639,2.30E+00,1.20E+00,2,1,3.11,3.47,4,1,4,1  2  1,-1,6.02E+0016,baseline,baseline,4,5,0,20140417T111639,3.74E+00,1.20E+00,3,1,12.01,12.42,8,1,8,5  1  2,-1,1.51E+0116,baseline,baseline,4,6,0,20140417T111639,5.28E+00,1.20E+00,4,0,6.25,6.94,14,1,11,3  3  5,-1,9.81E+0016,baseline,baseline,4,7,0,20140417T111639,3.74E+00,1.20E+00,3,1,5.31,5.76,8,1,8,3  3  2,-1,8.38E+0016,baseline,baseline,4,8,0,20140417T111639,5.28E+00,1.20E+00,4,1,3.88,4.46,11,1,11,1  5  5,-1,7.30E+0016,baseline,baseline,4,9,0,20140417T111639,6.90E+00,1.20E+00,5,0,15.18,16,14,1,19,7  8  4,-1,1.89E+0116,baseline,baseline,4,10,0,20140417T111639,5.28E+00,1.20E+00,4,1,13.78,14.4,12,1,12,4  3  5,-1,1.74E+0116,baseline,baseline,4,11,0,20140417T111639,6.90E+00,1.20E+00,5,1,10.21,10.83,15,1,15,5  8  2,-1,1.34E+0116,baseline,baseline,4,12,0,20140417T111639,8.59E+00,1.20E+00,6,0,11.4,12.12,27,1,25,8  9  8,-1,1.48E+0116,baseline,baseline,4,13,0,20140417T111639,6.90E+00,1.20E+00,5,0,12.77,13.4,14,1,17,6  7  4,-1,1.64E+0116,baseline,baseline,4,14,0,20140417T111639,5.28E+00,1.20E+00,4,0,6.92,7.34,8,1,10,4  2  4,-1,1.01E+0116,baseline,baseline,4,15,0,20140417T111639,3.74E+00,1.20E+00,3,1,5.33,5.95,10,1,10,4  2  4,-1,8.81E+0016,baseline,baseline,4,16,0,20140417T111639,5.28E+00,1.20E+00,4,1,3.47,4.18,9,1,9,2  2  5,-1,6.76E+0016,baseline,baseline,4,17,0,20140417T111639,6.90E+00,1.20E+00,5,1,2.08,3.57,16,1,16,1  7  8,-1,6.31E+0016,baseline,baseline,4,18,0,20140417T111639,8.59E+00,1.20E+00,6,1,6.68,7.16,22,1,22,8  10   4,-1,9.90E+0016,baseline,baseline,4,19,0,20140417T111639,1.03E+01,1.20E+00,7,1,3.99,4.65,24,1,24,10   9   5,-1,7.50E+0016,baseline,baseline,4,20,0,20140417T111639,1.21E+01,1.20E+00,8,1,6.37,6.96,23,1,23,8  12   3,-1,9.64E+0016,baseline,baseline,4,21,0,20140417T111639,1.40E+01,1.20E+00,9,1,18.78,19.38,36,1,36,9  13  14,-1,2.24E+0116,baseline,baseline,4,22,0,20140417T111639,1.58E+01,1.20E+00,10,0,16.34,16.89,36,1,35,16   3  16,-1,1.99E+0116,baseline,baseline,4,23,0,20140417T111639,1.40E+01,1.20E+00,9,0,11.68,12.51,30,1,32,15  11   6,-1,1.55E+0116,baseline,baseline,4,24,0,20140417T111639,1.21E+01,1.20E+00,8,1,6.1,6.66,25,1,25,11  11   3,-1,9.45E+0016,baseline,baseline,4,25,0,20140417T111639,1.40E+01,1.20E+00,9,1,18.87,19.77,37,1,37,12  15  10,-1,2.27E+0116,baseline,baseline,4,26,0,20140417T111639,1.58E+01,1.20E+00,10,0,25.68,26.51,31,1,41,12  12  17,-1,2.95E+0116,baseline,baseline,4,27,0,20140417T111639,1.40E+01,1.20E+00,9,1,11.83,12.31,22,1,22,2   5  15,-1,1.52E+0116,baseline,baseline,4,28,0,20140417T111639,1.58E+01,1.20E+00,10,1,6.74,7.26,36,1,36,6  15  15,-1,1.04E+0116,baseline,baseline,4,29,0,20140417T111639,1.78E+01,1.20E+00,11,1,14.25,14.89,32,1,32,17   8   7,-1,1.79E+0116,baseline,baseline,4,30,0,20140417T111639,1.97E+01,1.20E+00,12,1,18.3,18.88,47,1,47,15  11  21,-1,2.20E+0116,baseline,baseline,4,31,0,20140417T111639,2.17E+01,1.20E+00,13,0,11.1,11.73,26,1,45,1  21  23,-1,1.47E+0116,baseline,baseline,4,32,0,20140417T111639,1.97E+01,1.20E+00,12,0,22.96,23.73,35,1,46,16  21   9,-1,2.68E+0116,baseline,baseline,4,33,0,20140417T111639,1.78E+01,1.20E+00,11,0,30,30.1,-1,1,45,18  11  16,-1,3.32E+012,baseline,baseline,3,1,0,20130708T171657,3,1.20E+00,1,1,3.07,3.6,9,1,9,2  3  4,-1,6.80E+002,baseline,baseline,3,2,0,20130708T171657,3,1.20E+00,1,1,2.62,3.18,7,1,7,4  2  1,-1,5.91E+002,baseline,baseline,3,3,0,20130708T171657,3,1.20E+00,1,0,3.48,3.98,7,1,8,3  1  4,-1,6.85E+002,baseline,baseline,3,4,0,20130708T171657,3,1.20E+00,1,1,2.53,2.96,9,1,9,3  3  3,-1,5.76E+002,baseline,baseline,3,5,0,20130708T171657,2.30E+00,1.20E+00,2,1,2.19,2.59,4,1,4,1  1  2,-1,5.21E+002,baseline,baseline,3,6,0,20130708T171657,3.74E+00,1.20E+00,3,1,2.44,2.88,9,1,9,1  5  3,-1,5.69E+002,baseline,baseline,3,7,0,20130708T171657,5.28E+00,1.20E+00,4,1,2.22,2.69,9,1,9,1  6  2,-1,5.35E+002,baseline,baseline,3,8,0,20130708T171657,6.90E+00,1.20E+00,5,1,3.13,3.88,11,1,11,2  3  6,-1,6.74E+002,baseline,baseline,3,9,0,20130708T171657,8.59E+00,1.20E+00,6,1,4.02,4.76,12,1,12,8  3  1,-1,7.50E+002,baseline,baseline,3,10,0,20130708T171657,1.03E+01,1.20E+00,7,1,4.11,4.76,26,1,26,11  10   5,-1,7.85E+002,baseline,baseline,3,11,0,20130708T171657,1.21E+01,1.20E+00,8,1,5.94,6.74,28,1,28,11   6  11,-1,9.97E+002,baseline,baseline,3,12,0,20130708T171657,1.40E+01,1.20E+00,9,1,1.95,2.68,24,1,24,5  15   4,-1,6.09E+002,baseline,baseline,3,13,0,20130708T171657,1.58E+01,1.20E+00,10,1,2.4,3.37,18,1,18,1   1  16,-1,6.23E+002,baseline,baseline,3,14,0,20130708T171657,1.78E+01,1.20E+00,11,0,19.06,19.97,32,1,41,19   7  15,-1,2.32E+012,baseline,baseline,3,15,0,20130708T171657,1.58E+01,1.20E+00,10,1,6.92,7.75,34,1,34,11   7  16,-1,1.07E+012,baseline,baseline,3,16,0,20130708T171657,1.78E+01,1.20E+00,11,1,3.58,4.46,34,1,34,19   1  14,-1,7.45E+002,baseline,baseline,3,17,0,20130708T171657,1.97E+01,1.20E+00,12,0,20.6,21.46,43,1,53,19  13  21,-1,2.46E+012,baseline,baseline,3,18,0,20130708T171657,1.78E+01,1.20E+00,11,1,10.02,11.33,36,1,36,19   6  11,-1,1.42E+012,baseline,baseline,3,19,0,20130708T171657,1.97E+01,1.20E+00,12,0,9.25,10.14,41,1,31,5  21   5,-1,1.32E+012,baseline,baseline,3,20,0,20130708T171657,1.78E+01,1.20E+00,11,0,17.15,18.28,49,1,47,13  17  17,-1,2.15E+012,baseline,baseline,3,21,0,20130708T171657,1.58E+01,1.20E+00,10,1,6.6,7.55,31,1,31,15   2  14,-1,1.05E+012,baseline,baseline,3,22,0,20130708T171657,1.78E+01,1.20E+00,11,1,10.7,11.73,37,1,37,18   3  16,-1,1.47E+012,baseline,baseline,3,23,0,20130708T171657,1.97E+01,1.20E+00,12,1,5.37,6.46,41,1,41,15   5  21,-1,9.58E+002,baseline,baseline,3,24,0,20130708T171657,2.17E+01,1.20E+00,13,0,11.61,12.62,40,1,50,12  21  17,-1,1.57E+012,baseline,baseline,3,25,0,20130708T171657,1.97E+01,1.20E+00,12,0,16.49,17.28,46,1,53,18  19  16,-1,2.04E+012,baseline,baseline,3,26,0,20130708T171657,1.78E+01,1.20E+00,11,1,2.9,3.97,26,1,26,1   6  19,-1,6.88E+002,baseline,baseline,3,27,0,20130708T171657,1.97E+01,1.20E+00,12,1,2.67,3.57,26,1,26,6  19   1,-1,6.39E+002,baseline,baseline,3,28,0,20130708T171657,2.17E+01,1.20E+00,13,1,5.27,6.46,50,1,50,5  23  22,-1,9.50E+002,baseline,baseline,3,29,0,20130708T171657,2.37E+01,1.20E+00,14,1,3.6,4.77,30,1,30,2   4  24,-1,7.68E+002,baseline,baseline,3,30,0,20130708T171657,2.58E+01,1.20E+00,15,0,9.62,10.82,34,1,44,26   5  13,-1,1.40E+012,baseline,baseline,3,31,0,20130708T171657,2.37E+01,1.20E+00,14,1,7.03,8.14,47,1,47,21   1  25,-1,1.11E+012,baseline,baseline,3,32,0,20130708T171657,2.58E+01,1.20E+00,15,0,25.06,25.92,66,1,63,26  13  24,-1,2.91E+012,baseline,baseline,3,33,0,20130708T171657,2.37E+01,1.20E+00,14,1,17.06,17.99,42,1,42,23  18   1,-1,2.09E+012,baseline,baseline,3,34,0,20130708T171657,2.58E+01,1.20E+00,15,1,6.76,7.54,45,1,45,25  13   7,-1,1.06E+012,baseline,baseline,3,35,0,20130708T171657,2.79E+01,1.20E+00,16,1,19.44,20.65,68,1,68,12  27  29,-1,2.36E+012,baseline,baseline,3,36,0,20130708T171657,3.00E+01,1.20E+00,17,0,5.99,7.43,72,1,62,30  12  20,-1,1.03E+012,baseline,baseline,3,37,0,20130708T171657,2.79E+01,1.20E+00,16,1,13.09,14,56,1,56,5  22  29,-1,1.70E+013,baseline,baseline,4,1,0,20130709T103327,3,1.20E+00,1,1,8.18,8.57,9,1,9,3  4  2,-1,1.16E+013,baseline,baseline,4,2,0,20130709T103327,3,1.20E+00,1,1,2.08,2.57,4,1,4,2  1  1,-1,5.35E+003,baseline,baseline,4,3,0,20130709T103327,3,1.20E+00,1,1,4.28,4.77,7,1,7,1  2  4,-1,7.67E+003,baseline,baseline,4,4,0,20130709T103327,2.30E+00,1.20E+00,2,1,3.93,4.37,4,1,4,1  2  1,-1,7.14E+003,baseline,baseline,4,5,0,20130709T103327,3.74E+00,1.20E+00,3,0,7.62,8.65,14,1,13,4  4  5,-1,1.16E+013,baseline,baseline,4,6,0,20130709T103327,2.30E+00,1.20E+00,2,1,8.09,8.94,7,1,7,2  3  2,-1,1.16E+013,baseline,baseline,4,7,0,20130709T103327,3.74E+00,1.20E+00,3,1,6.98,7.84,12,1,12,4  3  5,-1,1.08E+013,baseline,baseline,4,8,0,20130709T103327,5.28E+00,1.20E+00,4,1,5.74,6.55,13,1,13,5  6  2,-1,9.66E+003,baseline,baseline,4,9,0,20130709T103327,6.90E+00,1.20E+00,5,1,6.86,7.75,15,1,15,4  5  6,-1,1.10E+013,baseline,baseline,4,10,0,20130709T103327,8.59E+00,1.20E+00,6,1,4.69,5.46,20,1,20,4  9  7,-1,8.77E+003,baseline,baseline,4,11,0,20130709T103327,1.03E+01,1.20E+00,7,1,3.27,4.17,18,1,18,2  10   6,-1,6.90E+003,baseline,baseline,4,12,0,20130709T103327,1.21E+01,1.20E+00,8,0,6,6.75,27,1,29,13   8   8,-1,9.59E+003,baseline,baseline,4,13,0,20130709T103327,1.03E+01,1.20E+00,7,1,9.12,10.02,22,1,22,8  5  9,-1,1.29E+013,baseline,baseline,4,14,0,20130709T103327,1.21E+01,1.20E+00,8,1,6.79,7.55,26,1,26,13   7   6,-1,1.05E+013,baseline,baseline,4,15,0,20130709T103327,1.40E+01,1.20E+00,9,0,17.99,19.16,39,1,29,8  15   6,-1,2.21E+013,baseline,baseline,4,16,0,20130709T103327,1.21E+01,1.20E+00,8,1,4.8,5.56,32,1,32,7  12  13,-1,8.54E+003,baseline,baseline,4,17,0,20130709T103327,1.40E+01,1.20E+00,9,1,11.88,12.71,25,1,25,6   4  15,-1,1.58E+013,baseline,baseline,4,18,0,20130709T103327,1.58E+01,1.20E+00,10,0,6.46,7.44,30,1,32,1  16  15,-1,1.05E+013,baseline,baseline,4,19,0,20130709T103327,1.40E+01,1.20E+00,9,1,5.89,6.56,34,1,34,13  13   8,-1,9.46E+003,baseline,baseline,4,20,0,20130709T103327,1.58E+01,1.20E+00,10,1,6.96,7.84,20,1,20,15   3   2,-1,1.06E+013,baseline,baseline,4,21,0,20130709T103327,1.78E+01,1.20E+00,11,0,17.06,18.09,54,1,53,18  18  17,-1,2.13E+013,baseline,baseline,4,22,0,20130709T103327,1.58E+01,1.20E+00,10,1,5.19,6.36,34,1,34,4  15  15,-1,9.53E+003,baseline,baseline,4,23,0,20130709T103327,1.78E+01,1.20E+00,11,1,9.73,10.71,30,1,30,4  18   8,-1,1.36E+013,baseline,baseline,4,24,0,20130709T103327,1.97E+01,1.20E+00,12,1,12.01,12.72,41,1,41,19  18   4,-1,1.58E+013,baseline,baseline,4,25,0,20130709T103327,2.17E+01,1.20E+00,13,1,14.38,15,40,1,40,8  23   9,-1,1.79E+013,baseline,baseline,4,26,0,20130709T103327,2.37E+01,1.20E+00,14,1,5.4,6.16,43,1,43,23   6  14,-1,9.30E+003,baseline,baseline,4,27,0,20130709T103327,2.58E+01,1.20E+00,15,1,11.53,12.22,61,1,61,25  12  24,-1,1.53E+013,baseline,baseline,4,28,0,20130709T103327,2.79E+01,1.20E+00,16,1,10.77,11.63,62,1,62,29  10  23,-1,1.46E+013,baseline,baseline,4,29,0,20130709T103327,3.00E+01,1.20E+00,17,1,10.08,10.83,77,1,77,30  27  20,-1,1.37E+013,baseline,baseline,4,30,0,20130709T103327,3.21E+01,1.20E+00,18,1,10.62,11.43,85,1,85,28  25  32,-1,1.45E+013,baseline,baseline,4,31,0,20130709T103327,3.42E+01,1.20E+00,19,1,10.31,11.32,82,1,82,35  15  32,-1,1.46E+013,baseline,baseline,4,32,0,20130709T103327,3.64E+01,1.20E+00,20,1,16.47,17.38,60,1,60,15   8  37,-1,2.05E+013,baseline,baseline,4,33,0,20130709T103327,3.86E+01,1.20E+00,21,1,8.03,8.82,50,1,50,38   6   6,-1,1.18E+013,baseline,baseline,4,34,0,20130709T103327,4.08E+01,1.20E+00,22,0,19.75,20.76,76,1,86,8  37  41,-1,2.38E+013,baseline,baseline,4,35,0,20130709T103327,3.86E+01,1.20E+00,21,1,12.41,13.41,77,1,77,30   8  39,-1,1.64E+014,baseline,baseline,2,1,0,20130709T141503,3,1.20E+00,1,1,1.94,2.29,5,1,5,1  2  2,-1,5.27E+004,baseline,baseline,2,2,0,20130709T141503,3,1.20E+00,1,1,3.23,3.67,9,1,9,3  2  4,-1,6.51E+004,baseline,baseline,2,3,0,20130709T141503,3,1.20E+00,1,1,2.08,2.38,6,1,6,2  1  3,-1,5.21E+004,baseline,baseline,2,4,0,20130709T141503,2.30E+00,1.20E+00,2,1,1.88,2.18,6,1,6,3  1  2,-1,4.91E+004,baseline,baseline,2,5,0,20130709T141503,3.74E+00,1.20E+00,3,1,4.71,5.17,9,1,9,4  2  3,-1,8.04E+004,baseline,baseline,2,6,0,20130709T141503,5.28E+00,1.20E+00,4,1,7.09,7.54,12,1,12,4  5  3,-1,1.04E+014,baseline,baseline,2,7,0,20130709T141503,6.90E+00,1.20E+00,5,1,5.98,6.46,15,1,15,5  3  7,-1,9.40E+004,baseline,baseline,2,8,0,20130709T141503,8.59E+00,1.20E+00,6,0,6.55,6.94,12,1,14,4  2  8,-1,9.77E+004,baseline,baseline,2,9,0,20130709T141503,6.90E+00,1.20E+00,5,1,9.32,9.84,13,1,13,1  7  5,-1,1.32E+014,baseline,baseline,2,10,0,20130709T141503,8.59E+00,1.20E+00,6,1,17.07,18.17,24,1,24,7  9  8,-1,2.12E+014,baseline,baseline,2,11,0,20130709T141503,1.03E+01,1.20E+00,7,1,5.18,5.77,13,1,13,1   1  11,-1,8.64E+004,baseline,baseline,2,12,0,20130709T141503,1.21E+01,1.20E+00,8,1,12.94,13.62,24,1,24,11   1  12,-1,1.65E+014,baseline,baseline,2,13,0,20130709T141503,1.40E+01,1.20E+00,9,1,18.02,18.97,37,1,37,10  13  14,-1,2.20E+014,baseline,baseline,2,14,0,20130709T141503,1.58E+01,1.20E+00,10,1,9.31,10.32,43,1,43,16  11  16,-1,1.34E+014,baseline,baseline,2,15,0,20130709T141503,1.78E+01,1.20E+00,11,0,21.53,22.35,42,1,41,19   6  16,-1,2.54E+014,baseline,baseline,2,16,0,20130709T141503,1.58E+01,1.20E+00,10,1,14.84,15.5,31,1,31,11   5  15,-1,1.85E+014,baseline,baseline,2,17,0,20130709T141503,1.78E+01,1.20E+00,11,1,15.05,15.68,34,1,34,17  14   3,-1,1.88E+014,baseline,baseline,2,18,0,20130709T141503,1.97E+01,1.20E+00,12,0,21.86,22.74,39,1,43,15   9  19,-1,2.58E+014,baseline,baseline,2,19,0,20130709T141503,1.78E+01,1.20E+00,11,1,14.23,15,39,1,39,10  12  17,-1,1.81E+014,baseline,baseline,2,20,0,20130709T141503,1.97E+01,1.20E+00,12,1,4.37,5.07,31,1,31,21   1   9,-1,8.00E+004,baseline,baseline,2,21,0,20130709T141503,2.17E+01,1.20E+00,13,1,8.68,9.33,46,1,46,22  20   4,-1,1.24E+014,baseline,baseline,2,22,0,20130709T141503,2.37E+01,1.20E+00,14,1,11.74,12.52,43,1,43,9  24  10,-1,1.55E+014,baseline,baseline,2,23,0,20130709T141503,2.58E+01,1.20E+00,15,1,11.64,12.41,58,1,58,25  26   7,-1,1.56E+014,baseline,baseline,2,24,0,20130709T141503,2.79E+01,1.20E+00,16,1,15.4,16,42,1,42,29  11   2,-1,1.88E+014,baseline,baseline,2,25,0,20130709T141503,3.00E+01,1.20E+00,17,1,14.4,15.2,42,1,42,4  29   9,-1,1.82E+014,baseline,baseline,2,26,0,20130709T141503,3.21E+01,1.20E+00,18,0,14.28,15.21,35,1,45,32   6   7,-1,1.82E+014,baseline,baseline,2,27,0,20130709T141503,3.00E+01,1.20E+00,17,1,20.09,21.16,83,1,83,29  30  24,-1,2.42E+014,baseline,baseline,2,28,0,20130709T141503,3.21E+01,1.20E+00,18,1,18.45,19.08,90,1,90,31  27  32,-1,2.23E+014,baseline,baseline,2,29,0,20130709T141503,3.42E+01,1.20E+00,19,1,13.02,13.5,44,1,44,6  33   5,-1,1.65E+014,baseline,baseline,2,30,0,20130709T141503,3.64E+01,1.20E+00,20,0,16.1,16.89,96,1,99,27  36  36,-1,2.01E+014,baseline,baseline,2,31,0,20130709T141503,3.42E+01,1.20E+00,19,1,7.32,8.14,39,1,39,3  34   2,-1,1.09E+015,baseline,baseline,1,1,0,20130711T131559,3,1.20E+00,1,1,0.38,1.17,7,1,7,3  1  3,-1,5.25E+005,baseline,baseline,1,2,0,20130711T131559,3,1.20E+00,1,1,1.49,2.28,7,1,7,1  3  3,-1,5.16E+005,baseline,baseline,1,3,0,20130711T131559,3,1.20E+00,1,1,2.07,2.77,9,1,9,2  4  3,-1,5.68E+005,baseline,baseline,1,4,0,20130711T131559,2.30E+00,1.20E+00,2,1,0.95,1.68,5,1,5,2  2  1,-1,4.24E+005,baseline,baseline,1,5,0,20130711T131559,3.74E+00,1.20E+00,3,1,2.29,2.87,9,1,9,4  2  3,-1,5.73E+005,baseline,baseline,1,6,0,20130711T131559,5.28E+00,1.20E+00,4,1,0.95,1.47,8,1,8,1  3  4,-1,4.45E+005,baseline,baseline,1,7,0,20130711T131559,6.90E+00,1.20E+00,5,1,7.48,8.2,18,1,18,5  6  7,-1,1.14E+015,baseline,baseline,1,8,0,20130711T131559,8.59E+00,1.20E+00,6,1,1.66,2.27,20,1,20,6  5  9,-1,5.28E+005,baseline,baseline,1,9,0,20130711T131559,1.03E+01,1.20E+00,7,1,0.68,1.18,20,1,20,5  10   5,-1,4.49E+005,baseline,baseline,1,10,0,20130711T131559,1.21E+01,1.20E+00,8,1,1.38,1.97,22,1,22,6   4  12,-1,5.28E+005,baseline,baseline,1,11,0,20130711T131559,1.40E+01,1.20E+00,9,1,2.27,2.87,23,1,23,13   3   7,-1,5.99E+005,baseline,baseline,1,12,0,20130711T131559,1.58E+01,1.20E+00,10,1,1.82,2.75,34,1,34,10  16   8,-1,5.95E+005,baseline,baseline,1,13,0,20130711T131559,1.78E+01,1.20E+00,11,1,2.1,2.88,28,1,28,5  19   4,-1,6.18E+005,baseline,baseline,1,14,0,20130711T131559,1.97E+01,1.20E+00,12,1,3.24,3.97,38,1,38,20   5  13,-1,7.12E+005,baseline,baseline,1,15,0,20130711T131559,2.17E+01,1.20E+00,13,1,1.99,2.57,33,1,33,1  22  10,-1,5.47E+005,baseline,baseline,1,16,0,20130711T131559,2.37E+01,1.20E+00,14,1,2.66,3.27,65,1,65,21  19  25,-1,6.61E+005,baseline,baseline,1,17,0,20130711T131559,2.58E+01,1.20E+00,15,1,3.39,4.25,37,1,37,1   9  27,-1,7.27E+005,baseline,baseline,1,18,0,20130711T131559,2.79E+01,1.20E+00,16,1,7.88,8.64,55,1,55,20  27   8,-1,1.15E+015,baseline,baseline,1,19,0,20130711T131559,3.00E+01,1.20E+00,17,1,7.02,7.74,64,1,64,8  27  29,-1,1.07E+015,baseline,baseline,1,20,0,20130711T131559,3.21E+01,1.20E+00,18,1,4.81,5.45,91,1,91,31  31  29,-1,8.56E+005,baseline,baseline,1,21,0,20130711T131559,3.42E+01,1.20E+00,19,1,6.13,6.84,53,1,53,15   5  33,-1,9.98E+005,baseline,baseline,1,22,0,20130711T131559,3.64E+01,1.20E+00,20,0,16.74,17.48,83,1,65,37  22   6,-1,2.07E+015,baseline,baseline,1,23,0,20130711T131559,3.42E+01,1.20E+00,19,1,6.52,7.04,62,1,62,22   6  34,-1,1.01E+015,baseline,baseline,1,24,0,20130711T131559,3.64E+01,1.20E+00,20,0,9.62,10.42,57,1,58,21  35   2,-1,1.34E+015,baseline,baseline,1,25,0,20130711T131559,3.42E+01,1.20E+00,19,1,5.05,6.04,56,1,56,3  20  33,-1,9.02E+005,baseline,baseline,1,26,0,20130711T131559,3.64E+01,1.20E+00,20,1,8.79,9.53,60,1,60,9  14  37,-1,1.27E+015,baseline,baseline,1,27,0,20130711T131559,3.86E+01,1.20E+00,21,0,16.51,17.37,100,1,106,28  39  39,-1,2.05E+015,baseline,baseline,1,28,0,20130711T131559,3.64E+01,1.20E+00,20,1,9.41,10.02,93,1,93,28  35  30,-1,1.30E+015,baseline,baseline,1,29,0,20130711T131559,3.86E+01,1.20E+00,21,1,13.74,14.4,58,1,58,14   5  39,-1,1.76E+015,baseline,baseline,1,30,0,20130711T131559,4.08E+01,1.20E+00,22,1,2.05,2.87,48,1,48,40   1   7,-1,5.86E+005,baseline,baseline,1,31,0,20130711T131559,4.31E+01,1.20E+00,23,0,4.66,5.24,82,1,72,42   9  21,-1,8.39E+005,baseline,baseline,1,32,0,20130711T131559,4.08E+01,1.20E+00,22,1,9.77,12.21,83,1,83,35  41   7,-1,1.53E+015,baseline,baseline,1,33,0,20130711T131559,4.31E+01,1.20E+00,23,1,11.99,12.9,118,1,118,38  37  43,-1,1.63E+015,baseline,baseline,1,34,0,20130711T131559,4.53E+01,1.20E+00,24,1,14.36,15.18,91,1,91,11  44  36,-1,1.84E+015,baseline,baseline,1,35,0,20130711T131559,4.76E+01,1.20E+00,25,1,10.8,11.62,74,1,74,11  14  49,-1,1.49E+015,baseline,baseline,1,36,0,20130711T131559,4.99E+01,1.20E+00,26,1,12.84,13.59,101,1,101,49  21  31,-1,1.69E+015,baseline,baseline,1,37,0,20130711T131559,5.22E+01,1.20E+00,27,1,7.65,8.53,121,1,121,17  52  52,-1,1.17E+015,baseline,baseline,1,38,0,20130711T131559,5.45E+01,1.20E+00,28,0,21.62,22.32,99,1,107,23  29  55,-1,2.57E+015,baseline,baseline,1,39,0,20130711T131559,5.22E+01,1.20E+00,27,1,3.92,4.94,109,1,109,49  51   9,-1,8.18E+005,baseline,baseline,1,40,0,20130711T131559,5.45E+01,1.20E+00,28,0,28.1,29.21,161,1,160,54  51  55,-1,3.25E+016,baseline,baseline,4,1,0,20130718T151758,3,1.20E+00,1,1,1.53,2.01,7,1,7,3  1  3,-1,4.96E+006,baseline,baseline,4,2,0,20130718T151758,3,1.20E+00,1,1,2.66,2.97,7,1,7,3  2  2,-1,5.59E+006,baseline,baseline,4,3,0,20130718T151758,3,1.20E+00,1,1,1.08,1.38,7,1,7,1  4  2,-1,4.08E+006,baseline,baseline,4,4,0,20130718T151758,2.30E+00,1.20E+00,2,1,3.26,3.67,6,1,6,2  1  3,-1,6.45E+006,baseline,baseline,4,5,0,20130718T151758,3.74E+00,1.20E+00,3,1,7.77,8.54,12,1,12,4  3  5,-1,1.15E+016,baseline,baseline,4,6,0,20130718T151758,5.28E+00,1.20E+00,4,1,1.48,1.99,10,1,10,6  3  1,-1,4.76E+006,baseline,baseline,4,7,0,20130718T151758,6.90E+00,1.20E+00,5,1,4.82,5.36,18,1,18,5  7  6,-1,8.32E+006,baseline,baseline,4,8,0,20130718T151758,8.59E+00,1.20E+00,6,1,6.67,7.16,21,1,21,9  5  7,-1,1.01E+016,baseline,baseline,4,9,0,20130718T151758,1.03E+01,1.20E+00,7,1,3.26,3.67,25,1,25,11   4  10,-1,6.60E+006,baseline,baseline,4,10,0,20130718T151758,1.21E+01,1.20E+00,8,1,9.79,10.23,21,1,21,4   5  12,-1,1.31E+016,baseline,baseline,4,11,0,20130718T151758,1.40E+01,1.20E+00,9,1,11.32,11.81,33,1,33,14   9  10,-1,1.48E+016,baseline,baseline,4,12,0,20130718T151758,1.58E+01,1.20E+00,10,1,7.04,7.53,32,1,32,3  14  15,-1,1.06E+016,baseline,baseline,4,13,0,20130718T151758,1.78E+01,1.20E+00,11,0,23.42,23.93,42,1,39,3  18  18,-1,2.69E+016,baseline,baseline,4,14,0,20130718T151758,1.58E+01,1.20E+00,10,1,4.8,5.27,32,1,32,15   1  16,-1,8.28E+006,baseline,baseline,4,15,0,20130718T151758,1.78E+01,1.20E+00,11,1,5.44,6.05,25,1,25,5  17   3,-1,9.07E+006,baseline,baseline,4,16,0,20130718T151758,1.97E+01,1.20E+00,12,1,2.16,2.69,36,1,36,6   9  21,-1,5.73E+006,baseline,baseline,4,17,0,20130718T151758,2.17E+01,1.20E+00,13,1,5.93,6.46,38,1,38,23   2  13,-1,9.45E+006,baseline,baseline,4,18,0,20130718T151758,2.37E+01,1.20E+00,14,1,16.44,16.98,42,1,42,3  16  23,-1,2.00E+016,baseline,baseline,4,19,0,20130718T151758,2.58E+01,1.20E+00,15,0,24.97,25.44,56,1,57,27  18  12,-1,2.84E+016,baseline,baseline,4,20,0,20130718T151758,2.37E+01,1.20E+00,14,1,21.35,21.96,67,1,67,20  23  24,-1,2.50E+016,baseline,baseline,4,21,0,20130718T151758,2.58E+01,1.20E+00,15,1,14.89,15.5,54,1,54,21   7  26,-1,1.87E+016,baseline,baseline,4,22,0,20130718T151758,2.79E+01,1.20E+00,16,1,7.62,8.05,56,1,56,22   6  28,-1,1.10E+016,baseline,baseline,4,23,0,20130718T151758,3.00E+01,1.20E+00,17,1,10.81,11.33,66,1,66,29   7  30,-1,1.42E+016,baseline,baseline,4,24,0,20130718T151758,3.21E+01,1.20E+00,18,1,12.34,12.81,63,1,63,18  31  14,-1,1.59E+016,baseline,baseline,4,25,0,20130718T151758,3.42E+01,1.20E+00,19,1,4.63,5.07,66,1,66,5  26  35,-1,8.21E+006,baseline,baseline,4,26,0,20130718T151758,3.64E+01,1.20E+00,20,0,17.93,18.48,74,1,72,34   3  35,-1,2.15E+016,baseline,baseline,4,27,0,20130718T151758,3.42E+01,1.20E+00,19,1,14.62,15.3,71,1,71,33  26  12,-1,1.83E+016,baseline,baseline,4,28,0,20130718T151758,3.64E+01,1.20E+00,20,1,6.26,6.85,67,1,67,23  37   7,-1,1.00E+016,baseline,baseline,4,29,0,20130718T151758,3.86E+01,1.20E+00,21,0,18.75,19.37,99,1,109,38  35  36,-1,2.25E+016,baseline,baseline,4,30,0,20130718T151758,3.64E+01,1.20E+00,20,0,19.29,19.86,69,1,89,37  18  34,-1,2.31E+016,baseline,baseline,4,31,0,20130718T151758,3.42E+01,1.20E+00,19,0,18.9,19.66,73,1,78,35  29  14,-1,2.28E+016,baseline,baseline,4,32,0,20130718T151758,3.21E+01,1.20E+00,18,1,10.52,11.13,79,1,79,26  33  20,-1,1.42E+016,baseline,baseline,4,33,0,20130718T151758,3.42E+01,1.20E+00,19,1,4.95,5.56,70,1,70,35   5  30,-1,8.53E+006,baseline,baseline,4,34,0,20130718T151758,3.64E+01,1.20E+00,20,1,6.86,7.35,48,1,48,11  35   2,-1,1.01E+017,baseline,baseline,2,1,0,20130724T112456,3,1.20E+00,1,1,3.41,3.89,8,1,8,3  3  2,-1,6.82E+007,baseline,baseline,2,2,0,20130724T112456,3,1.20E+00,1,1,1.94,2.29,8,1,8,3  3  2,-1,4.93E+007,baseline,baseline,2,3,0,20130724T112456,3,1.20E+00,1,1,1.2,1.67,8,1,8,3  3  2,-1,4.25E+007,baseline,baseline,2,4,0,20130724T112456,2.30E+00,1.20E+00,2,1,3.31,3.67,6,1,6,1  3  2,-1,6.22E+007,baseline,baseline,2,5,0,20130724T112456,3.74E+00,1.20E+00,3,1,4.06,4.46,7,1,7,1  3  3,-1,7.13E+007,baseline,baseline,2,6,0,20130724T112456,5.28E+00,1.20E+00,4,1,1.91,2.38,13,1,13,5  3  5,-1,5.27E+007,baseline,baseline,2,7,0,20130724T112456,6.90E+00,1.20E+00,5,1,3.8,4.65,14,1,14,4  7  3,-1,7.53E+007,baseline,baseline,2,8,0,20130724T112456,8.59E+00,1.20E+00,6,1,9.55,10.43,21,1,21,9  8  4,-1,1.32E+017,baseline,baseline,2,9,0,20130724T112456,1.03E+01,1.20E+00,7,1,2.37,2.88,19,1,19,4  11   4,-1,5.88E+007,baseline,baseline,2,10,0,20130724T112456,1.21E+01,1.20E+00,8,1,4.63,5.16,22,1,22,13   8   1,-1,7.92E+007,baseline,baseline,2,11,0,20130724T112456,1.40E+01,1.20E+00,9,1,6.78,7.34,32,1,32,14   4  14,-1,1.05E+017,baseline,baseline,2,12,0,20130724T112456,1.58E+01,1.20E+00,10,0,13.14,13.6,32,1,30,2  15  13,-1,1.65E+017,baseline,baseline,2,13,0,20130724T112456,1.40E+01,1.20E+00,9,0,12.41,12.92,32,1,31,13   6  12,-1,1.58E+017,baseline,baseline,2,14,0,20130724T112456,1.21E+01,1.20E+00,8,1,5.31,5.86,21,1,21,3   7  11,-1,8.71E+007,baseline,baseline,2,15,0,20130724T112456,1.40E+01,1.20E+00,9,1,5.47,6.06,28,1,28,14   2  12,-1,8.85E+007,baseline,baseline,2,16,0,20130724T112456,1.58E+01,1.20E+00,10,1,6.35,6.95,37,1,37,16  11  10,-1,9.81E+007,baseline,baseline,2,17,0,20130724T112456,1.78E+01,1.20E+00,11,0,4.61,5.25,46,1,36,18  17   1,-1,8.23E+007,baseline,baseline,2,18,0,20130724T112456,1.58E+01,1.20E+00,10,1,13.82,14.31,36,1,36,14  17   5,-1,1.75E+017,baseline,baseline,2,19,0,20130724T112456,1.78E+01,1.20E+00,11,1,13.93,14.51,43,1,43,19  12  12,-1,1.74E+017,baseline,baseline,2,20,0,20130724T112456,1.97E+01,1.20E+00,12,0,16.39,17.08,51,1,42,18   3  21,-1,2.01E+017,baseline,baseline,2,21,0,20130724T112456,1.78E+01,1.20E+00,11,1,14.74,15.3,34,1,34,17  13   4,-1,1.84E+017,baseline,baseline,2,22,0,20130724T112456,1.97E+01,1.20E+00,12,1,7.19,7.74,35,1,35,3  20  12,-1,1.05E+017,baseline,baseline,2,23,0,20130724T112456,2.17E+01,1.20E+00,13,1,9.7,10.24,40,1,40,4  21  15,-1,1.34E+017,baseline,baseline,2,24,0,20130724T112456,2.37E+01,1.20E+00,14,1,16.39,16.89,35,1,35,3   8  24,-1,1.97E+017,baseline,baseline,2,25,0,20130724T112456,2.58E+01,1.20E+00,15,1,9.47,10.03,44,1,44,1  25  18,-1,1.30E+017,baseline,baseline,2,26,0,20130724T112456,2.79E+01,1.20E+00,16,1,5.13,5.77,34,1,34,2  27   5,-1,8.63E+007,baseline,baseline,2,27,0,20130724T112456,3.00E+01,1.20E+00,17,1,15.35,16.1,73,1,73,14  29  30,-1,1.91E+017,baseline,baseline,2,28,0,20130724T112456,3.21E+01,1.20E+00,18,1,5.98,6.55,50,1,50,31   9  10,-1,9.37E+007,baseline,baseline,2,29,0,20130724T112456,3.42E+01,1.20E+00,19,1,10.89,12.21,51,1,51,33   1  17,-1,1.52E+017,baseline,baseline,2,30,0,20130724T112456,3.64E+01,1.20E+00,20,0,14.53,15.09,84,1,104,31  36  37,-1,1.83E+017,baseline,baseline,2,31,0,20130724T112456,3.42E+01,1.20E+00,19,1,24.87,25.53,72,1,72,34   8  30,-1,2.84E+017,baseline,baseline,2,32,0,20130724T112456,3.64E+01,1.20E+00,20,0,8.5,9.12,50,1,45,1  35   9,-1,1.20E+017,baseline,baseline,2,33,0,20130724T112456,3.42E+01,1.20E+00,19,0,21.6,22.14,93,1,91,24  34  33,-1,2.52E+017,baseline,baseline,2,34,0,20130724T112456,3.21E+01,1.20E+00,18,0,22.54,23.34,70,1,65,26  32   7,-1,2.64E+017,baseline,baseline,2,35,0,20130724T112456,3.00E+01,1.20E+00,17,1,4.96,5.47,54,1,54,20   4  30,-1,8.33E+008,baseline,baseline,2,1,0,20130724T163208,3,1.20E+00,1,1,1.71,2.01,4,1,4,1  1  2,-1,4.80E+008,baseline,baseline,2,2,0,20130724T163208,3,1.20E+00,1,1,2.02,2.29,7,1,7,2  2  3,-1,4.79E+008,baseline,baseline,2,3,0,20130724T163208,3,1.20E+00,1,1,4.56,4.87,8,1,8,3  2  3,-1,7.56E+008,baseline,baseline,2,4,0,20130724T163208,2.30E+00,1.20E+00,2,1,3.34,3.58,5,1,5,1  2  2,-1,6.00E+008,baseline,baseline,2,5,0,20130724T163208,3.74E+00,1.20E+00,3,1,8.32,8.64,11,1,11,5  2  4,-1,1.15E+018,baseline,baseline,2,6,0,20130724T163208,5.28E+00,1.20E+00,4,1,3.92,4.18,8,1,8,6  1  1,-1,6.82E+008,baseline,baseline,2,7,0,20130724T163208,6.90E+00,1.20E+00,5,1,4.1,4.37,9,1,9,1  7  1,-1,7.11E+008,baseline,baseline,2,8,0,20130724T163208,8.59E+00,1.20E+00,6,1,8.3,8.65,21,1,21,8  8  5,-1,1.13E+018,baseline,baseline,2,9,0,20130724T163208,1.03E+01,1.20E+00,7,1,7.84,8.34,24,1,24,11   8   5,-1,1.11E+018,baseline,baseline,2,10,0,20130724T163208,1.21E+01,1.20E+00,8,1,7.86,8.35,30,1,30,12  11   7,-1,1.12E+018,baseline,baseline,2,11,0,20130724T163208,1.40E+01,1.20E+00,9,1,3.26,3.68,30,1,30,14   6  10,-1,6.62E+008,baseline,baseline,2,12,0,20130724T163208,1.58E+01,1.20E+00,10,1,13.02,13.5,31,1,31,12   4  15,-1,1.65E+018,baseline,baseline,2,13,0,20130724T163208,1.78E+01,1.20E+00,11,1,14.37,14.79,26,1,26,17   3   6,-1,1.78E+018,baseline,baseline,2,14,0,20130724T163208,1.97E+01,1.20E+00,12,1,11.32,11.72,33,1,33,12  19   2,-1,1.44E+018,baseline,baseline,2,15,0,20130724T163208,2.17E+01,1.20E+00,13,1,12.1,12.61,40,1,40,13  21   6,-1,1.57E+018,baseline,baseline,2,16,0,20130724T163208,2.37E+01,1.20E+00,14,1,7.56,7.95,44,1,44,23  14   7,-1,1.10E+018,baseline,baseline,2,17,0,20130724T163208,2.58E+01,1.20E+00,15,1,17.59,18.08,55,1,55,23   7  25,-1,2.12E+018,baseline,baseline,2,18,0,20130724T163208,2.79E+01,1.20E+00,16,0,24.16,24.74,64,1,74,28  21  25,-1,2.78E+018,baseline,baseline,2,19,0,20130724T163208,2.58E+01,1.20E+00,15,0,9.92,10.41,64,1,65,24  15  26,-1,1.36E+018,baseline,baseline,2,20,0,20130724T163208,2.37E+01,1.20E+00,14,1,25.08,25.63,58,1,58,23  18  17,-1,2.88E+018,baseline,baseline,2,21,0,20130724T163208,2.58E+01,1.20E+00,15,1,18.7,19.17,55,1,55,17  12  26,-1,2.22E+018,baseline,baseline,2,22,0,20130724T163208,2.79E+01,1.20E+00,16,0,30,30.1,-1,1,50,13   9  28,-1,3.30E+018,baseline,baseline,2,23,0,20130724T163208,2.58E+01,1.20E+00,15,1,9.12,9.63,43,1,43,4  27  12,-1,1.26E+018,baseline,baseline,2,24,0,20130724T163208,2.79E+01,1.20E+00,16,0,24.71,25.23,46,1,65,27  29   9,-1,2.82E+018,baseline,baseline,2,25,0,20130724T163208,2.58E+01,1.20E+00,15,1,22.67,23.14,55,1,55,27  19   9,-1,2.62E+018,baseline,baseline,2,26,0,20130724T163208,2.79E+01,1.20E+00,16,1,14.8,15.4,76,1,76,29  20  27,-1,1.84E+018,baseline,baseline,2,27,0,20130724T163208,3.00E+01,1.20E+00,17,1,22.92,23.34,51,1,51,17   3  31,-1,2.64E+018,baseline,baseline,2,28,0,20130724T163208,3.21E+01,1.20E+00,18,0,17.14,17.67,75,1,65,32  23  10,-1,2.07E+018,baseline,baseline,2,29,0,20130724T163208,3.00E+01,1.20E+00,17,1,16.61,16.98,45,1,45,5  29  11,-1,1.99E+018,baseline,baseline,2,30,0,20130724T163208,3.21E+01,1.20E+00,18,0,30,30.1,-1,1,51,6  12  33,-1,3.30E+019,baseline,baseline,3,1,0,20130801T122946,3,1.20E+00,1,1,4.65,5.09,7,1,7,4  2  1,-1,8.44E+009,baseline,baseline,3,2,0,20130801T122946,3,1.20E+00,1,1,6.37,6.65,7,1,7,2  1  4,-1,9.50E+009,baseline,baseline,3,3,0,20130801T122946,3,1.20E+00,1,1,10.64,11.12,6,1,6,2  1  3,-1,1.39E+019,baseline,baseline,3,4,0,20130801T122946,2.30E+00,1.20E+00,2,1,4.85,5.16,6,1,6,2  3  1,-1,7.94E+009,baseline,baseline,3,5,0,20130801T122946,3.74E+00,1.20E+00,3,1,7.13,7.54,9,1,9,3  4  2,-1,1.03E+019,baseline,baseline,3,6,0,20130801T122946,5.28E+00,1.20E+00,4,1,5.37,6.15,10,1,10,5  1  4,-1,9.04E+009,baseline,baseline,3,7,0,20130801T122946,6.90E+00,1.20E+00,5,1,5.24,5.76,10,1,10,6  2  2,-1,8.47E+009,baseline,baseline,3,8,0,20130801T122946,8.59E+00,1.20E+00,6,1,2.19,2.68,20,1,20,8   2  10,-1,5.42E+009,baseline,baseline,3,9,0,20130801T122946,1.03E+01,1.20E+00,7,1,6.13,7.45,16,1,16,4  10   2,-1,1.04E+019,baseline,baseline,3,10,0,20130801T122946,1.21E+01,1.20E+00,8,1,8.99,9.54,20,1,20,1  13   6,-1,1.26E+019,baseline,baseline,3,11,0,20130801T122946,1.40E+01,1.20E+00,9,0,24.67,25.52,36,1,34,14   7  13,-1,2.88E+019,baseline,baseline,3,12,0,20130801T122946,1.21E+01,1.20E+00,8,0,14.03,14.8,28,1,29,11   5  13,-1,1.78E+019,baseline,baseline,3,13,0,20130801T122946,1.03E+01,1.20E+00,7,1,7.34,7.85,23,1,23,10   3  10,-1,1.06E+019,baseline,baseline,3,14,0,20130801T122946,1.21E+01,1.20E+00,8,0,20.48,20.97,19,1,20,6  12   2,-1,2.37E+019,baseline,baseline,3,15,0,20130801T122946,1.03E+01,1.20E+00,7,1,7.44,7.95,15,1,15,10   3   2,-1,1.12E+019,baseline,baseline,3,16,0,20130801T122946,1.21E+01,1.20E+00,8,1,12.39,12.91,26,1,26,4   9  13,-1,1.61E+019,baseline,baseline,3,17,0,20130801T122946,1.40E+01,1.20E+00,9,1,2.52,3.17,30,1,30,10  15   5,-1,6.40E+009,baseline,baseline,3,18,0,20130801T122946,1.58E+01,1.20E+00,10,1,15.51,16.39,29,1,29,6  16   7,-1,1.97E+0110,blindfold,blindfold,3,1,0,20130815T134639,3,1.20E+00,1,1,1.79,2.3,7,1,7,4  1  2,-1,5.25E+0010,blindfold,blindfold,3,2,0,20130815T134639,3,1.20E+00,1,1,0.93,1.3,5,1,5,1  1  3,-1,4.15E+0010,blindfold,blindfold,3,3,0,20130815T134639,3,1.20E+00,1,1,1.36,1.69,6,1,6,2  3  1,-1,4.47E+0010,blindfold,blindfold,3,4,0,20130815T134639,2.30E+00,1.20E+00,2,1,2.18,2.48,6,1,6,3  2  1,-1,5.29E+0010,blindfold,blindfold,3,5,0,20130815T134639,3.74E+00,1.20E+00,3,1,1.29,1.68,8,1,8,2  4  2,-1,4.40E+0010,blindfold,blindfold,3,6,0,20130815T134639,5.28E+00,1.20E+00,4,1,1.02,1.4,9,1,9,3  4  2,-1,4.12E+0010,blindfold,blindfold,3,7,0,20130815T134639,6.90E+00,1.20E+00,5,1,1.11,1.57,11,1,11,1  7  3,-1,4.41E+0010,blindfold,blindfold,3,8,0,20130815T134639,8.59E+00,1.20E+00,6,1,1.59,2.39,19,1,19,8  4  7,-1,5.31E+0010,blindfold,blindfold,3,9,0,20130815T134639,1.03E+01,1.20E+00,7,1,2.53,3.06,24,1,24,6  9  9,-1,5.97E+0010,blindfold,blindfold,3,10,0,20130815T134639,1.21E+01,1.20E+00,8,1,15.1,15.61,31,1,31,9  13   9,-1,1.85E+0110,blindfold,blindfold,3,11,0,20130815T134639,1.40E+01,1.20E+00,9,1,4.04,4.77,25,1,25,9  13   3,-1,8.05E+0010,blindfold,blindfold,3,12,0,20130815T134639,1.58E+01,1.20E+00,10,1,3.01,3.47,26,1,26,4  15   7,-1,6.86E+0010,blindfold,blindfold,3,13,0,20130815T134639,1.78E+01,1.20E+00,11,0,5.17,5.87,32,1,39,13  18   8,-1,8.95E+0010,blindfold,blindfold,3,14,0,20130815T134639,1.58E+01,1.20E+00,10,1,10.59,11.03,31,1,31,12  15   4,-1,1.40E+0110,blindfold,blindfold,3,15,0,20130815T134639,1.78E+01,1.20E+00,11,1,8.43,9.13,39,1,39,17  18   4,-1,1.22E+0110,blindfold,blindfold,3,16,0,20130815T134639,1.97E+01,1.20E+00,12,1,2.81,3.28,34,1,34,10  21   3,-1,6.12E+0010,blindfold,blindfold,3,17,0,20130815T134639,2.17E+01,1.20E+00,13,1,3.49,4.27,44,1,44,2  21  21,-1,7.32E+0010,blindfold,blindfold,3,18,0,20130815T134639,2.37E+01,1.20E+00,14,1,7.15,7.83,39,1,39,15  23   1,-1,1.08E+0110,blindfold,blindfold,3,19,0,20130815T134639,2.58E+01,1.20E+00,15,1,2.18,2.87,47,1,47,17   5  25,-1,5.99E+0010,blindfold,blindfold,3,20,0,20130815T134639,2.79E+01,1.20E+00,16,1,2.85,3.56,53,1,53,11  14  28,-1,6.53E+0010,blindfold,blindfold,3,21,0,20130815T134639,3.00E+01,1.20E+00,17,1,4.57,5.25,88,1,88,28  30  30,-1,8.12E+0010,blindfold,blindfold,3,22,0,20130815T134639,3.21E+01,1.20E+00,18,1,5.64,6.25,42,1,42,3  32   7,-1,9.19E+0010,blindfold,blindfold,3,23,0,20130815T134639,3.42E+01,1.20E+00,19,1,4.86,5.36,78,1,78,35  13  30,-1,8.35E+0010,blindfold,blindfold,3,24,0,20130815T134639,3.64E+01,1.20E+00,20,0,15.93,17.19,110,1,80,14  30  36,-1,2.02E+0110,blindfold,blindfold,3,25,0,20130815T134639,3.42E+01,1.20E+00,19,1,6.59,7.16,68,1,68,34  24  10,-1,1.01E+0110,blindfold,blindfold,3,26,0,20130815T134639,3.64E+01,1.20E+00,20,0,12.92,13.4,53,1,83,23  25  35,-1,1.66E+0110,blindfold,blindfold,3,27,0,20130815T134639,3.42E+01,1.20E+00,19,0,30,30.11,-1,1,83,31  18  34,-1,3.32E+0110,blindfold,blindfold,3,28,0,20130815T134639,3.21E+01,1.20E+00,18,1,12.97,13.51,65,1,65,23  32  10,-1,1.64E+0110,blindfold,blindfold,3,29,0,20130815T134639,3.42E+01,1.20E+00,19,0,17.43,17.97,47,1,57,18   5  34,-1,2.10E+0110,blindfold,blindfold,3,30,0,20130815T134639,3.21E+01,1.20E+00,18,0,9.25,9.93,55,1,75,23  19  33,-1,1.30E+0110,blindfold,blindfold,3,31,0,20130815T134639,3.00E+01,1.20E+00,17,1,15.07,15.59,58,1,58,15  31  12,-1,1.86E+0110,blindfold,blindfold,3,32,0,20130815T134639,3.21E+01,1.20E+00,18,1,10.17,10.72,67,1,67,31  14  22,-1,1.38E+0110,blindfold,blindfold,3,33,0,20130815T134639,3.42E+01,1.20E+00,19,0,15.53,16,94,1,93,35  32  26,-1,1.92E+0110,blindfold,blindfold,3,34,0,20130815T134639,3.21E+01,1.20E+00,18,1,12.26,12.72,65,1,65,22  31  12,-1,1.57E+0110,blindfold,blindfold,3,35,0,20130815T134639,3.42E+01,1.20E+00,19,0,8.84,9.43,97,1,87,30  34  23,-1,1.25E+0110,blindfold,blindfold,3,36,0,20130815T134639,3.21E+01,1.20E+00,18,1,15.01,16.89,58,1,58,4  22  32,-1,1.99E+0110,blindfold,blindfold,3,37,0,20130815T134639,3.42E+01,1.20E+00,19,1,9.38,10.23,72,1,72,18  34  20,-1,1.32E+0110,blindfold,blindfold,3,38,0,20130815T134639,3.64E+01,1.20E+00,20,1,4.35,4.76,68,1,68,36  16  16,-1,7.95E+0011,blindfold,blindfold,4,1,0,20130819T105234,3,1.20E+00,1,1,0.92,1.31,8,1,8,3  1  4,-1,4.42E+0011,blindfold,blindfold,4,2,0,20130819T105234,3,1.20E+00,1,1,1.38,1.68,6,1,6,2  3  1,-1,4.26E+0011,blindfold,blindfold,4,3,0,20130819T105234,3,1.20E+00,1,1,3.62,4.17,10,1,10,4  3  3,-1,6.98E+0011,blindfold,blindfold,4,4,0,20130819T105234,2.30E+00,1.20E+00,2,1,6.48,6.95,7,1,7,3  2  2,-1,9.41E+0011,blindfold,blindfold,4,5,0,20130819T105234,3.74E+00,1.20E+00,3,1,1.85,2.37,9,1,9,4  4  1,-1,5.18E+0011,blindfold,blindfold,4,6,0,20130819T105234,5.28E+00,1.20E+00,4,1,0.97,1.77,13,1,13,6  4  3,-1,4.61E+0011,blindfold,blindfold,4,7,0,20130819T105234,6.90E+00,1.20E+00,5,1,1.53,2.08,12,1,12,5  1  6,-1,4.90E+0011,blindfold,blindfold,4,8,0,20130819T105234,8.59E+00,1.20E+00,6,1,4.88,5.56,17,1,17,3  9  5,-1,8.39E+0011,blindfold,blindfold,4,9,0,20130819T105234,1.03E+01,1.20E+00,7,1,7.77,8.44,23,1,23,5  11   7,-1,1.14E+0111,blindfold,blindfold,4,10,0,20130819T105234,1.21E+01,1.20E+00,8,1,3.81,4.37,20,1,20,6   3  11,-1,7.17E+0011,blindfold,blindfold,4,11,0,20130819T105234,1.40E+01,1.20E+00,9,1,5,5.86,37,1,37,13  11  13,-1,8.86E+0011,blindfold,blindfold,4,12,0,20130819T105234,1.58E+01,1.20E+00,10,1,5.57,6.24,37,1,37,14   6  17,-1,9.40E+0011,blindfold,blindfold,4,13,0,20130819T105234,1.78E+01,1.20E+00,11,1,9.5,10.13,40,1,40,11  11  18,-1,1.31E+0111,blindfold,blindfold,4,14,0,20130819T105234,1.97E+01,1.20E+00,12,1,2.18,2.78,25,1,25,20   2   3,-1,5.41E+0011,blindfold,blindfold,4,15,0,20130819T105234,2.17E+01,1.20E+00,13,1,9.28,10.13,38,1,38,2  23  13,-1,1.30E+0111,blindfold,blindfold,4,16,0,20130819T105234,2.37E+01,1.20E+00,14,1,5.5,6.55,58,1,58,24  24  10,-1,9.48E+0011,blindfold,blindfold,4,17,0,20130819T105234,2.58E+01,1.20E+00,15,1,16.87,17.59,35,1,35,6  26   3,-1,2.05E+0111,blindfold,blindfold,4,18,0,20130819T105234,2.79E+01,1.20E+00,16,0,5.51,5.77,5,1,52,2  29  21,-1,8.61E+0011,blindfold,blindfold,4,19,0,20130819T105234,2.58E+01,1.20E+00,15,1,9.87,10.52,51,1,51,26  21   4,-1,1.37E+0111,blindfold,blindfold,4,20,0,20130819T105234,2.79E+01,1.20E+00,16,1,9.35,10.04,76,1,76,25  24  27,-1,1.32E+0111,blindfold,blindfold,4,21,0,20130819T105234,3.00E+01,1.20E+00,17,1,9.97,10.72,56,1,56,9  17  30,-1,1.37E+0111,blindfold,blindfold,4,22,0,20130819T105234,3.21E+01,1.20E+00,18,1,11.43,12.12,66,1,66,24  11  31,-1,1.51E+0111,blindfold,blindfold,4,23,0,20130819T105234,3.42E+01,1.20E+00,19,0,9.94,10.63,85,1,75,17  33  25,-1,1.38E+0111,blindfold,blindfold,4,24,0,20130819T105234,3.21E+01,1.20E+00,18,1,15.31,16.19,64,1,64,19  32  13,-1,1.93E+0111,blindfold,blindfold,4,25,0,20130819T105234,3.42E+01,1.20E+00,19,1,12.26,12.81,66,1,66,21  12  33,-1,1.58E+0111,blindfold,blindfold,4,26,0,20130819T105234,3.64E+01,1.20E+00,20,1,2.57,3.28,65,1,65,15  15  35,-1,6.43E+0011,blindfold,blindfold,4,27,0,20130819T105234,3.86E+01,1.20E+00,21,0,19.77,24.55,0,1,79,39   7  33,-1,2.76E+0111,blindfold,blindfold,4,28,0,20130819T105234,3.64E+01,1.20E+00,20,1,11.1,11.72,86,1,86,20  31  35,-1,1.47E+0111,blindfold,blindfold,4,29,0,20130819T105234,3.86E+01,1.20E+00,21,1,15.39,16,83,1,83,21  23  39,-1,1.92E+0111,blindfold,blindfold,4,30,0,20130819T105234,4.08E+01,1.20E+00,22,0,25.46,26.61,127,1,117,38  40  39,-1,2.96E+0111,blindfold,blindfold,4,31,0,20130819T105234,3.86E+01,1.20E+00,21,1,13.49,14.11,87,1,87,37  12  38,-1,1.72E+0111,blindfold,blindfold,4,32,0,20130819T105234,4.08E+01,1.20E+00,22,0,16.63,17.49,72,1,87,29  16  42,-1,2.05E+0111,blindfold,blindfold,4,33,0,20130819T105234,3.86E+01,1.20E+00,21,1,26.86,27.72,81,1,81,10  39  32,-1,3.07E+0111,blindfold,blindfold,4,34,0,20130819T105234,4.08E+01,1.20E+00,22,1,16.61,17.49,102,1,102,25  37  40,-1,2.05E+0111,blindfold,blindfold,4,35,0,20130819T105234,4.31E+01,1.20E+00,23,1,17.62,18.67,111,1,111,44  40  27,-1,2.17E+0112,blindfold,blindfold,4,1,0,20140129T175527,3,1.20E+00,1,1,2.26,2.68,8,1,8,3  3  2,-1,5.60E+0012,blindfold,blindfold,4,2,0,20140129T175527,3,1.20E+00,1,1,1.99,2.38,8,1,8,3  4  1,-1,5.07E+0012,blindfold,blindfold,4,3,0,20140129T175527,3,1.20E+00,1,1,2.15,2.59,7,1,7,3  2  2,-1,5.01E+0012,blindfold,blindfold,4,4,0,20140129T175527,2.30E+00,1.20E+00,2,1,2.73,3.07,5,1,5,1  2  2,-1,5.43E+0012,blindfold,blindfold,4,5,0,20140129T175527,3.74E+00,1.20E+00,3,1,3.44,3.97,11,1,11,5  2  4,-1,6.69E+0012,blindfold,blindfold,4,6,0,20140129T175527,5.28E+00,1.20E+00,4,1,5.03,5.36,7,1,7,2  1  4,-1,7.89E+0012,blindfold,blindfold,4,7,0,20140129T175527,6.90E+00,1.20E+00,5,1,4.28,4.86,17,1,17,4  6  7,-1,7.76E+0012,blindfold,blindfold,4,8,0,20140129T175527,8.59E+00,1.20E+00,6,1,6.59,7.16,13,1,13,9  3  1,-1,9.78E+0012,blindfold,blindfold,4,9,0,20140129T175527,1.03E+01,1.20E+00,7,1,3.1,3.87,27,1,27,10   7  10,-1,6.52E+0012,blindfold,blindfold,4,10,0,20140129T175527,1.21E+01,1.20E+00,8,1,2.4,3.08,24,1,24,13   7   4,-1,6.05E+0012,blindfold,blindfold,4,11,0,20140129T175527,1.40E+01,1.20E+00,9,0,12.72,13.3,32,1,37,14  15   8,-1,1.63E+0112,blindfold,blindfold,4,12,0,20140129T175527,1.21E+01,1.20E+00,8,1,7.75,8.34,26,1,26,11   4  11,-1,1.12E+0112,blindfold,blindfold,4,13,0,20140129T175527,1.40E+01,1.20E+00,9,1,13.91,14.51,25,1,25,2  14   9,-1,1.73E+0112,blindfold,blindfold,4,14,0,20140129T175527,1.58E+01,1.20E+00,10,1,1.33,2.28,27,1,27,3  17   7,-1,5.20E+0012,blindfold,blindfold,4,15,0,20140129T175527,1.78E+01,1.20E+00,11,1,19.45,20.07,41,1,41,18   7  16,-1,2.31E+0112,blindfold,blindfold,4,16,0,20140129T175527,1.97E+01,1.20E+00,12,1,2.17,2.68,33,1,33,20   3  10,-1,5.35E+0012,blindfold,blindfold,4,17,0,20140129T175527,2.17E+01,1.20E+00,13,0,9.14,9.63,49,1,39,12  21   6,-1,1.25E+0112,blindfold,blindfold,4,18,0,20140129T175527,1.97E+01,1.20E+00,12,0,6.63,7.25,35,1,33,8   4  21,-1,1.01E+0112,blindfold,blindfold,4,19,0,20140129T175527,1.78E+01,1.20E+00,11,1,9.98,10.62,36,1,36,17  11   8,-1,1.35E+0112,blindfold,blindfold,4,20,0,20140129T175527,1.97E+01,1.20E+00,12,0,21.33,21.95,25,1,32,7   6  19,-1,2.49E+0112,blindfold,blindfold,4,21,0,20140129T175527,1.78E+01,1.20E+00,11,1,5.33,5.87,26,1,26,6  17   3,-1,8.76E+0012,blindfold,blindfold,4,22,0,20140129T175527,1.97E+01,1.20E+00,12,1,2.49,3.28,38,1,38,9   9  20,-1,6.10E+0012,blindfold,blindfold,4,23,0,20140129T175527,2.17E+01,1.20E+00,13,1,8.53,9.03,59,1,59,21  20  18,-1,1.20E+0112,blindfold,blindfold,4,24,0,20140129T175527,2.37E+01,1.20E+00,14,1,10.11,10.62,49,1,49,15  25   9,-1,1.37E+0112,blindfold,blindfold,4,25,0,20140129T175527,2.58E+01,1.20E+00,15,1,2.67,3.77,47,1,47,17  25   5,-1,6.83E+0012,blindfold,blindfold,4,26,0,20140129T175527,2.79E+01,1.20E+00,16,1,11.7,12.3,71,1,71,27  22  22,-1,1.54E+0112,blindfold,blindfold,4,27,0,20140129T175527,3.00E+01,1.20E+00,17,1,8.83,9.93,63,1,63,2  31  30,-1,1.27E+0112,blindfold,blindfold,4,28,0,20140129T175527,3.21E+01,1.20E+00,18,1,8.44,9.03,94,1,94,31  32  31,-1,1.22E+0112,blindfold,blindfold,4,29,0,20140129T175527,3.42E+01,1.20E+00,19,1,9.99,10.53,51,1,51,9   8  34,-1,1.34E+0112,blindfold,blindfold,4,30,0,20140129T175527,3.64E+01,1.20E+00,20,1,8.21,8.83,94,1,94,30  27  37,-1,1.19E+0112,blindfold,blindfold,4,31,0,20140129T175527,3.86E+01,1.20E+00,21,0,12.56,13.62,77,1,75,1  36  38,-1,1.66E+0112,blindfold,blindfold,4,32,0,20140129T175527,3.64E+01,1.20E+00,20,1,17.78,18.38,63,1,63,37   2  24,-1,2.13E+0112,blindfold,blindfold,4,33,0,20140129T175527,3.86E+01,1.20E+00,21,1,4.72,6.95,60,1,60,38   4  18,-1,9.93E+0012,blindfold,blindfold,4,34,0,20140129T175527,4.08E+01,1.20E+00,22,0,15.22,15.91,96,1,86,8  37  41,-1,1.89E+0112,blindfold,blindfold,4,35,0,20140129T175527,3.86E+01,1.20E+00,21,0,16.73,17.38,60,1,64,39  10  15,-1,2.04E+0112,blindfold,blindfold,4,36,0,20140129T175527,3.64E+01,1.20E+00,20,0,19.38,20.06,81,1,69,12  36  21,-1,2.30E+0112,blindfold,blindfold,4,37,0,20140129T175527,3.42E+01,1.20E+00,19,1,8.64,9.24,63,1,63,7  34  22,-1,1.22E+0113,blindfold,blindfold,3,1,0,20140207T161746,3,1.20E+00,1,1,0.88,1.38,6,1,6,2  1  3,-1,5.00E+0013,blindfold,blindfold,3,2,0,20140207T161746,3,1.20E+00,1,1,2.23,2.67,7,1,7,2  2  3,-1,5.25E+0013,blindfold,blindfold,3,3,0,20140207T161746,3,1.20E+00,1,1,1.65,1.98,5,1,5,1  2  2,-1,4.48E+0013,blindfold,blindfold,3,4,0,20140207T161746,2.30E+00,1.20E+00,2,1,1.32,1.68,3,1,3,1  1  1,-1,4.35E+0013,blindfold,blindfold,3,5,0,20140207T161746,3.74E+00,1.20E+00,3,1,1.95,2.87,11,1,11,5  2  4,-1,5.68E+0013,blindfold,blindfold,3,6,0,20140207T161746,5.28E+00,1.20E+00,4,1,0.76,1.3,11,1,11,5  5  1,-1,4.13E+0013,blindfold,blindfold,3,7,0,20140207T161746,6.90E+00,1.20E+00,5,1,2.38,2.97,16,1,16,2  7  7,-1,5.83E+0013,blindfold,blindfold,3,8,0,20140207T161746,8.59E+00,1.20E+00,6,1,0.8,1.49,19,1,19,9  1  9,-1,4.35E+0013,blindfold,blindfold,3,9,0,20140207T161746,1.03E+01,1.20E+00,7,1,3.08,4.87,23,1,23,11   7   5,-1,7.79E+0013,blindfold,blindfold,3,10,0,20140207T161746,1.21E+01,1.20E+00,8,1,5.01,5.57,33,1,33,11  11  11,-1,8.46E+0013,blindfold,blindfold,3,11,0,20140207T161746,1.40E+01,1.20E+00,9,1,2.72,3.57,28,1,28,1  13  14,-1,6.69E+0013,blindfold,blindfold,3,12,0,20140207T161746,1.58E+01,1.20E+00,10,0,6.71,7.44,46,1,36,14   7  15,-1,1.06E+0113,blindfold,blindfold,3,13,0,20140207T161746,1.40E+01,1.20E+00,9,0,7.4,8.35,37,1,27,3  13  11,-1,1.13E+0113,blindfold,blindfold,3,14,0,20140207T161746,1.21E+01,1.20E+00,8,0,2.33,2.97,32,1,34,11  11  12,-1,5.86E+0013,blindfold,blindfold,3,15,0,20140207T161746,1.03E+01,1.20E+00,7,1,2.6,3.28,23,1,23,10   3  10,-1,6.10E+0013,blindfold,blindfold,3,16,0,20140207T161746,1.21E+01,1.20E+00,8,0,6.29,6.85,24,1,22,3  11   8,-1,9.59E+0013,blindfold,blindfold,3,17,0,20140207T161746,1.03E+01,1.20E+00,7,1,1.86,2.38,21,1,21,10   4   7,-1,5.27E+0013,blindfold,blindfold,3,18,0,20140207T161746,1.21E+01,1.20E+00,8,1,2.92,3.48,26,1,26,11  10   5,-1,6.37E+0013,blindfold,blindfold,3,19,0,20140207T161746,1.40E+01,1.20E+00,9,0,4.85,5.66,34,1,35,10  12  13,-1,8.58E+0013,blindfold,blindfold,3,20,0,20140207T161746,1.21E+01,1.20E+00,8,1,4.69,5.37,28,1,28,10  13   5,-1,8.28E+0013,blindfold,blindfold,3,21,0,20140207T161746,1.40E+01,1.20E+00,9,0,3.56,4.28,38,1,28,14   1  13,-1,7.24E+0013,blindfold,blindfold,3,22,0,20140207T161746,1.21E+01,1.20E+00,8,1,3.46,3.97,22,1,22,10   1  11,-1,6.71E+0013,blindfold,blindfold,3,23,0,20140207T161746,1.40E+01,1.20E+00,9,1,2.7,3.27,25,1,25,5   5  15,-1,6.31E+0013,blindfold,blindfold,3,24,0,20140207T161746,1.58E+01,1.20E+00,10,1,2.82,3.48,40,1,40,16  10  14,-1,6.54E+0013,blindfold,blindfold,3,25,0,20140207T161746,1.78E+01,1.20E+00,11,1,3.77,4.46,29,1,29,17   4   8,-1,7.39E+0013,blindfold,blindfold,3,26,0,20140207T161746,1.97E+01,1.20E+00,12,1,4.14,4.75,47,1,47,6  21  20,-1,7.86E+0013,blindfold,blindfold,3,27,0,20140207T161746,2.17E+01,1.20E+00,13,0,3.23,3.88,31,1,41,1  21  19,-1,6.89E+0013,blindfold,blindfold,3,28,0,20140207T161746,1.97E+01,1.20E+00,12,1,2.44,2.97,32,1,32,20   4   8,-1,5.74E+0013,blindfold,blindfold,3,29,0,20140207T161746,2.17E+01,1.20E+00,13,1,13.64,14.2,44,1,44,18  22   4,-1,1.73E+0113,blindfold,blindfold,3,30,0,20140207T161746,2.37E+01,1.20E+00,14,1,8.38,9.04,41,1,41,1  25  15,-1,1.20E+0113,blindfold,blindfold,3,31,0,20140207T161746,2.58E+01,1.20E+00,15,1,12.45,13.21,37,1,37,7  25   5,-1,1.62E+0113,blindfold,blindfold,3,32,0,20140207T161746,2.79E+01,1.20E+00,16,1,6.87,7.54,69,1,69,24  16  29,-1,1.07E+0113,blindfold,blindfold,3,33,0,20140207T161746,3.00E+01,1.20E+00,17,0,12.37,13.01,62,1,52,22   1  29,-1,1.59E+0113,blindfold,blindfold,3,34,0,20140207T161746,2.79E+01,1.20E+00,16,1,5.1,5.77,41,1,41,7  29   5,-1,8.69E+0013,blindfold,blindfold,3,35,0,20140207T161746,3.00E+01,1.20E+00,17,1,16.27,16.89,58,1,58,18  31   9,-1,1.99E+0113,blindfold,blindfold,3,36,0,20140207T161746,3.21E+01,1.20E+00,18,1,10.42,11.13,91,1,91,28  33  30,-1,1.41E+0113,blindfold,blindfold,3,37,0,20140207T161746,3.42E+01,1.20E+00,19,1,11.93,12.52,51,1,51,34   4  13,-1,1.57E+0113,blindfold,blindfold,3,38,0,20140207T161746,3.64E+01,1.20E+00,20,1,12.79,13.4,50,1,50,9   4  37,-1,1.65E+0113,blindfold,blindfold,3,39,0,20140207T161746,3.86E+01,1.20E+00,21,0,22.23,23.95,115,1,65,18  40   7,-1,2.69E+0113,blindfold,blindfold,3,40,0,20140207T161746,3.64E+01,1.20E+00,20,1,16.28,16.89,85,1,85,35  19  31,-1,2.01E+0113,blindfold,blindfold,3,41,0,20140207T161746,3.86E+01,1.20E+00,21,1,16.38,16.89,66,1,66,17  39  10,-1,2.01E+0113,blindfold,blindfold,3,42,0,20140207T161746,4.08E+01,1.20E+00,22,1,3.52,4.17,68,1,68,7  41  20,-1,7.21E+0014,blindfold,blindfold,3,1,0,2/25/14 15:28,3,1.20E+00,1,1,0.78,1.44,4,1,4,1  2  1,-1,6.11E+0014,blindfold,blindfold,3,2,0,2/25/14 15:28,3,1.20E+00,1,1,2.28,2.91,6,1,6,1  2  3,-1,5.73E+0014,blindfold,blindfold,3,3,0,2/25/14 15:28,3,1.20E+00,1,1,1.62,2.39,8,1,8,3  3  2,-1,5.36E+0014,blindfold,blindfold,3,4,0,2/25/14 15:28,2.30E+00,1.20E+00,2,1,1.34,1.91,5,1,5,2  1  2,-1,4.55E+0014,blindfold,blindfold,3,5,0,2/25/14 15:28,3.74E+00,1.20E+00,3,1,2.44,2.9,11,1,11,4  3  4,-1,6.19E+0014,blindfold,blindfold,3,6,0,2/25/14 15:28,5.28E+00,1.20E+00,4,1,4.26,4.91,11,1,11,2  4  5,-1,8.01E+0014,blindfold,blindfold,3,7,0,2/25/14 15:28,6.90E+00,1.20E+00,5,1,2.81,3.91,18,1,18,7  4  7,-1,7.25E+0014,blindfold,blindfold,3,8,0,2/25/14 15:28,8.59E+00,1.20E+00,6,1,1.68,2.39,20,1,20,10   8   2,-1,5.35E+0014,blindfold,blindfold,3,9,0,2/25/14 15:28,1.03E+01,1.20E+00,7,1,4.36,4.91,23,1,23,4   8  11,-1,8.04E+0014,blindfold,blindfold,3,10,0,2/25/14 15:28,1.21E+01,1.20E+00,8,1,4.81,5.42,32,1,32,11   9  12,-1,8.67E+0014,blindfold,blindfold,3,11,0,2/25/14 15:28,1.40E+01,1.20E+00,9,1,4.77,5.41,22,1,22,4  13   5,-1,8.86E+0014,blindfold,blindfold,3,12,0,2/25/14 15:28,1.58E+01,1.20E+00,10,1,2.64,3.41,27,1,27,7  17   3,-1,6.78E+0014,blindfold,blindfold,3,13,0,2/25/14 15:28,1.78E+01,1.20E+00,11,1,4.25,4.91,35,1,35,1  17  17,-1,8.29E+0014,blindfold,blindfold,3,14,0,2/25/14 15:28,1.97E+01,1.20E+00,12,1,2.27,2.89,25,1,25,1  20   4,-1,6.03E+0014,blindfold,blindfold,3,15,0,2/25/14 15:28,2.17E+01,1.20E+00,13,0,16.3,17.42,52,1,49,19  21   9,-1,2.09E+0114,blindfold,blindfold,3,16,0,2/25/14 15:28,1.97E+01,1.20E+00,12,1,2.41,3.4,27,1,27,2  20   5,-1,6.42E+0014,blindfold,blindfold,3,17,0,2/25/14 15:28,2.17E+01,1.20E+00,13,1,8.18,8.91,43,1,43,8  21  14,-1,1.23E+0114,blindfold,blindfold,3,18,0,2/25/14 15:28,2.37E+01,1.20E+00,14,1,8.56,9.41,55,1,55,11  25  19,-1,1.29E+0114,blindfold,blindfold,3,19,0,2/25/14 15:28,2.58E+01,1.20E+00,15,1,7.01,7.91,32,1,32,26   2   4,-1,1.11E+0114,blindfold,blindfold,3,20,0,2/25/14 15:28,2.79E+01,1.20E+00,16,0,7.95,8.9,53,1,54,28   7  19,-1,1.23E+0114,blindfold,blindfold,3,21,0,2/25/14 15:28,2.58E+01,1.20E+00,15,1,4.74,5.42,40,1,40,27   1  12,-1,8.56E+0014,blindfold,blindfold,3,22,0,2/25/14 15:28,2.79E+01,1.20E+00,16,1,7.19,7.92,60,1,60,25  27   8,-1,1.12E+0114,blindfold,blindfold,3,23,0,2/25/14 15:28,3.00E+01,1.20E+00,17,1,8.23,8.92,57,1,57,1  25  31,-1,1.22E+0114,blindfold,blindfold,3,24,0,2/25/14 15:28,3.21E+01,1.20E+00,18,0,22.44,23.41,98,1,86,32  26  28,-1,2.69E+0114,blindfold,blindfold,3,25,0,2/25/14 15:28,3.00E+01,1.20E+00,17,1,9.25,9.91,67,1,67,31   8  28,-1,1.30E+0114,blindfold,blindfold,3,26,0,2/25/14 15:28,3.21E+01,1.20E+00,18,1,6.93,7.91,70,1,70,33  22  15,-1,1.15E+0114,blindfold,blindfold,3,27,0,2/25/14 15:28,3.42E+01,1.20E+00,19,0,8.58,9.4,79,1,89,34  24  31,-1,1.30E+0114,blindfold,blindfold,3,28,0,2/25/14 15:28,3.21E+01,1.20E+00,18,1,9.03,9.91,59,1,59,9  18  32,-1,1.34E+0114,blindfold,blindfold,3,29,0,2/25/14 15:28,3.42E+01,1.20E+00,19,0,13.9,14.91,54,1,60,11  33  16,-1,1.84E+0114,blindfold,blindfold,3,30,0,2/25/14 15:28,3.21E+01,1.20E+00,18,1,10.01,11.41,73,1,73,23  32  18,-1,1.49E+0114,blindfold,blindfold,3,31,0,2/25/14 15:28,3.42E+01,1.20E+00,19,1,9.14,9.9,78,1,78,14  30  34,-1,1.34E+0114,blindfold,blindfold,3,32,0,2/25/14 15:28,3.64E+01,1.20E+00,20,1,15.9,16.92,54,1,54,4  35  15,-1,2.05E+0114,blindfold,blindfold,3,33,0,2/25/14 15:28,3.86E+01,1.20E+00,21,1,12.23,13.41,101,1,101,28  39  34,-1,1.69E+0114,blindfold,blindfold,3,34,0,2/25/14 15:28,4.08E+01,1.20E+00,22,1,2.1,2.91,51,1,51,9   1  41,-1,6.12E+0014,blindfold,blindfold,3,35,0,2/25/14 15:28,4.31E+01,1.20E+00,23,1,6.18,6.9,67,1,67,42  15  10,-1,1.05E+0114,blindfold,blindfold,3,36,0,2/25/14 15:28,4.53E+01,1.20E+00,24,1,10.87,11.91,78,1,78,45  18  15,-1,1.56E+0114,blindfold,blindfold,3,37,0,2/25/14 15:28,4.76E+01,1.20E+00,25,0,8.79,9.92,137,1,143,47  47  49,-1,1.36E+0114,blindfold,blindfold,3,38,0,2/25/14 15:28,4.53E+01,1.20E+00,24,1,6.71,7.92,120,1,120,44  41  35,-1,1.15E+0114,blindfold,blindfold,3,39,0,2/25/14 15:28,4.76E+01,1.20E+00,25,1,12.01,12.92,72,1,72,47   6  19,-1,1.65E+0114,blindfold,blindfold,3,40,0,2/25/14 15:28,4.99E+01,1.20E+00,26,0,10.45,11.41,82,1,81,26  49   6,-1,1.51E+0115,blindfold,blindfold,1,1,0,20140410T164153,3,1.20E+00,1,1,2.14,2.69,8,1,8,3  2  3,-1,8.27E+0015,blindfold,blindfold,1,2,0,20140410T164153,3,1.20E+00,1,1,4.07,4.59,8,1,8,4  3  1,-1,7.45E+0015,blindfold,blindfold,1,3,0,20140410T164153,3,1.20E+00,1,1,2.04,2.48,9,1,9,3  4  2,-1,5.18E+0015,blindfold,blindfold,1,4,0,20140410T164153,2.30E+00,1.20E+00,2,1,1.82,2.28,4,1,4,2  1  1,-1,4.88E+0015,blindfold,blindfold,1,5,0,20140410T164153,3.74E+00,1.20E+00,3,1,2.54,2.88,8,1,8,1  4  3,-1,5.65E+0015,blindfold,blindfold,1,6,0,20140410T164153,5.28E+00,1.20E+00,4,1,4.1,4.76,13,1,13,5  6  2,-1,7.62E+0015,blindfold,blindfold,1,7,0,20140410T164153,6.90E+00,1.20E+00,5,1,2.08,2.57,11,1,11,1  2  8,-1,5.17E+0015,blindfold,blindfold,1,8,0,20140410T164153,8.59E+00,1.20E+00,6,1,2.04,2.59,20,1,20,10   3   7,-1,5.46E+0015,blindfold,blindfold,1,9,0,20140410T164153,1.03E+01,1.20E+00,7,1,7.28,7.95,25,1,25,8  9  8,-1,1.07E+0115,blindfold,blindfold,1,10,0,20140410T164153,1.21E+01,1.20E+00,8,1,6.18,6.75,22,1,22,6   4  12,-1,9.71E+0015,blindfold,blindfold,1,11,0,20140410T164153,1.40E+01,1.20E+00,9,1,11.73,12.41,31,1,31,8   8  15,-1,1.52E+0115,blindfold,blindfold,1,12,0,20140410T164153,1.58E+01,1.20E+00,10,1,6.36,7.06,38,1,38,12  16  10,-1,9.94E+0015,blindfold,blindfold,1,13,0,20140410T164153,1.78E+01,1.20E+00,11,1,15.26,15.91,36,1,36,17  15   4,-1,1.92E+0115,blindfold,blindfold,1,14,0,20140410T164153,1.97E+01,1.20E+00,12,1,10.02,10.72,40,1,40,21  11   8,-1,1.37E+0115,blindfold,blindfold,1,15,0,20140410T164153,2.17E+01,1.20E+00,13,0,10.65,11.52,42,1,52,13  17  22,-1,1.48E+0115,blindfold,blindfold,1,16,0,20140410T164153,1.97E+01,1.20E+00,12,1,28.12,28.92,49,1,49,15  13  21,-1,3.21E+0115,blindfold,blindfold,1,17,0,20140410T164153,2.17E+01,1.20E+00,13,1,7.11,7.74,50,1,50,23  20   7,-1,1.08E+0115,blindfold,blindfold,1,18,0,20140410T164153,2.37E+01,1.20E+00,14,1,15.67,16.28,31,1,31,6   1  24,-1,1.92E+0115,blindfold,blindfold,1,19,0,20140410T164153,2.58E+01,1.20E+00,15,1,6.66,7.25,61,1,61,25  11  25,-1,1.04E+0115,blindfold,blindfold,1,20,0,20140410T164153,2.79E+01,1.20E+00,16,0,14.66,15.39,56,1,46,5  13  28,-1,1.84E+0115,blindfold,blindfold,1,21,0,20140410T164153,2.58E+01,1.20E+00,15,1,4.76,5.46,47,1,47,26  20   1,-1,8.40E+0015,blindfold,blindfold,1,22,0,20140410T164153,2.79E+01,1.20E+00,16,0,30,30.09,-1,1,78,29  24  25,-1,3.32E+0115,blindfold,blindfold,1,23,0,20140410T164153,2.58E+01,1.20E+00,15,1,14.51,15.49,43,1,43,5  26  12,-1,1.85E+0115,blindfold,blindfold,1,24,0,20140410T164153,2.79E+01,1.20E+00,16,1,13.28,14.01,49,1,49,27  12  10,-1,1.69E+0115,blindfold,blindfold,1,25,0,20140410T164153,3.00E+01,1.20E+00,17,1,28.59,29.31,53,1,53,29  13  11,-1,3.23E+0115,blindfold,blindfold,1,26,0,20140410T164153,3.21E+01,1.20E+00,18,1,19.14,19.87,64,1,64,31  25   8,-1,2.28E+0115,blindfold,blindfold,1,27,0,20140410T164153,3.42E+01,1.20E+00,19,0,20.64,21.55,71,1,72,35  23  14,-1,2.48E+0115,blindfold,blindfold,1,28,0,20140410T164153,3.21E+01,1.20E+00,18,1,17.04,17.58,55,1,55,32  14   9,-1,2.07E+0115,blindfold,blindfold,1,29,0,20140410T164153,3.42E+01,1.20E+00,19,0,19.77,20.47,93,1,83,35  25  23,-1,2.36E+0115,blindfold,blindfold,1,30,0,20140410T164153,3.21E+01,1.20E+00,18,1,19.38,19.87,63,1,63,33  17  13,-1,2.31E+0115,blindfold,blindfold,1,31,0,20140410T164153,3.42E+01,1.20E+00,19,1,15.79,16.38,65,1,65,11  35  19,-1,1.95E+0116,blindfold,blindfold,2,1,0,20140417T105512,3,1.20E+00,1,1,2.08,2.4,6,1,6,1  1  4,-1,5.67E+0016,blindfold,blindfold,2,2,0,20140417T105512,3,1.20E+00,1,0,8.5,8.93,8,1,7,2  3  2,-1,1.15E+0116,blindfold,blindfold,2,3,0,20140417T105512,3,1.20E+00,1,0,4.03,4.47,5,1,6,1  2  3,-1,7.01E+0016,blindfold,blindfold,2,4,0,20140417T105512,3,1.20E+00,1,1,2.94,3.37,7,1,7,3  3  1,-1,6.10E+0016,blindfold,blindfold,2,5,0,20140417T105512,2.30E+00,1.20E+00,2,1,2.18,2.59,5,1,5,2  2  1,-1,5.08E+0016,blindfold,blindfold,2,6,0,20140417T105512,3.74E+00,1.20E+00,3,1,4.02,4.46,9,1,9,4  1  4,-1,7.34E+0016,blindfold,blindfold,2,7,0,20140417T105512,5.28E+00,1.20E+00,4,1,7.92,8.45,11,1,11,5  4  2,-1,1.12E+0116,blindfold,blindfold,2,8,0,20140417T105512,6.90E+00,1.20E+00,5,1,4.59,5.16,12,1,12,1  5  6,-1,7.98E+0016,blindfold,blindfold,2,9,0,20140417T105512,8.59E+00,1.20E+00,6,1,5.12,5.66,15,1,15,5  8  2,-1,8.27E+0016,blindfold,blindfold,2,10,0,20140417T105512,1.03E+01,1.20E+00,7,1,6.16,6.76,17,1,17,10   2   5,-1,9.38E+0016,blindfold,blindfold,2,11,0,20140417T105512,1.21E+01,1.20E+00,8,1,9.35,10.02,17,1,17,2  11   4,-1,1.28E+0116,blindfold,blindfold,2,12,0,20140417T105512,1.40E+01,1.20E+00,9,0,16.96,17.49,22,1,29,15   8   6,-1,2.04E+0116,blindfold,blindfold,2,13,0,20140417T105512,1.21E+01,1.20E+00,8,1,7.08,7.64,23,1,23,13   5   5,-1,1.06E+0116,blindfold,blindfold,2,14,0,20140417T105512,1.40E+01,1.20E+00,9,0,13.48,16.58,22,1,33,5  14  14,-1,1.97E+0116,blindfold,blindfold,2,15,0,20140417T105512,1.21E+01,1.20E+00,8,1,2.96,3.58,19,1,19,3   3  13,-1,6.42E+0016,blindfold,blindfold,2,16,0,20140417T105512,1.40E+01,1.20E+00,9,0,8.69,9.23,31,1,33,11  13   9,-1,1.22E+0116,blindfold,blindfold,2,17,0,20140417T105512,1.21E+01,1.20E+00,8,1,9.89,10.63,24,1,24,8  12   4,-1,1.34E+0116,blindfold,blindfold,2,18,0,20140417T105512,1.40E+01,1.20E+00,9,0,16.41,17.28,26,1,23,6   2  15,-1,2.01E+0116,blindfold,blindfold,2,19,0,20140417T105512,1.21E+01,1.20E+00,8,1,13.14,13.61,22,1,22,11   3   8,-1,1.63E+0116,blindfold,blindfold,2,20,0,20140417T105512,1.40E+01,1.20E+00,9,1,12.88,13.5,24,1,24,13  10   1,-1,1.63E+0116,blindfold,blindfold,2,21,0,20140417T105512,1.58E+01,1.20E+00,10,0,27.23,27.92,31,1,36,15  12   9,-1,3.08E+0116,blindfold,blindfold,2,22,0,20140417T105512,1.40E+01,1.20E+00,9,1,3.93,4.57,28,1,28,10  14   4,-1,7.49E+0016,blindfold,blindfold,2,23,0,20140417T105512,1.58E+01,1.20E+00,10,1,7.41,8.04,33,1,33,4  16  13,-1,1.11E+0116,blindfold,blindfold,2,24,0,20140417T105512,1.78E+01,1.20E+00,11,0,17.23,17.98,42,1,47,11  18  18,-1,2.10E+0116,blindfold,blindfold,2,25,0,20140417T105512,1.58E+01,1.20E+00,10,1,13.84,14.5,33,1,33,9   7  17,-1,1.76E+0116,blindfold,blindfold,2,26,0,20140417T105512,1.78E+01,1.20E+00,11,1,23.85,24.63,38,1,38,18  16   4,-1,2.77E+0116,blindfold,blindfold,2,27,0,20140417T105512,1.97E+01,1.20E+00,12,0,19.29,19.96,42,1,43,15  20   8,-1,2.29E+0116,blindfold,blindfold,2,28,0,20140417T105512,1.78E+01,1.20E+00,11,0,23.53,24.24,30,1,51,17  15  19,-1,2.75E+0116,blindfold,blindfold,2,29,0,20140417T105512,1.58E+01,1.20E+00,10,0,30,30.1,27,1,35,17   4  14,-1,3.33E+0116,blindfold,blindfold,2,30,0,20140417T105512,1.40E+01,1.20E+00,9,1,6.65,7.26,25,1,25,6   6  13,-1,1.02E+0116,blindfold,blindfold,2,31,0,20140417T105512,1.58E+01,1.20E+00,10,1,7.69,8.63,26,1,26,15   1  10,-1,1.15E+0116,blindfold,blindfold,2,32,0,20140417T105512,1.78E+01,1.20E+00,11,1,23.29,23.94,46,1,46,10  18  18,-1,2.69E+012,blindfold,blindfold,4,1,0,20130708T172900,3,1.20E+00,1,1,5.03,5.79,8,1,8,3  2  3,-1,9.38E+002,blindfold,blindfold,4,2,0,20130708T172900,3,1.20E+00,1,1,2.31,2.87,7,1,7,3  1  3,-1,5.67E+002,blindfold,blindfold,4,3,0,20130708T172900,3,1.20E+00,1,1,1.59,2.28,7,1,7,3  3  1,-1,5.01E+002,blindfold,blindfold,4,4,0,20130708T172900,2.30E+00,1.20E+00,2,1,2.01,2.39,7,1,7,2  2  3,-1,5.01E+002,blindfold,blindfold,4,5,0,20130708T172900,3.74E+00,1.20E+00,3,1,3.27,4.17,11,1,11,4  4  3,-1,7.01E+002,blindfold,blindfold,4,6,0,20130708T172900,5.28E+00,1.20E+00,4,1,2.71,3.47,14,1,14,4  6  4,-1,6.40E+002,blindfold,blindfold,4,7,0,20130708T172900,6.90E+00,1.20E+00,5,1,3.84,4.66,13,1,13,5  6  2,-1,7.37E+002,blindfold,blindfold,4,8,0,20130708T172900,8.59E+00,1.20E+00,6,1,2.03,2.95,19,1,19,4  10   5,-1,6.04E+002,blindfold,blindfold,4,9,0,20130708T172900,1.03E+01,1.20E+00,7,1,3.59,4.68,20,1,20,9  6  5,-1,8.26E+002,blindfold,blindfold,4,10,0,20130708T172900,1.21E+01,1.20E+00,8,1,4.73,5.79,27,1,27,12   4  11,-1,9.30E+002,blindfold,blindfold,4,11,0,20130708T172900,1.40E+01,1.20E+00,9,1,9.12,9.9,32,1,32,9  13  10,-1,1.40E+012,blindfold,blindfold,4,12,0,20130708T172900,1.58E+01,1.20E+00,10,0,18.63,19.59,23,1,33,15   1  17,-1,2.35E+012,blindfold,blindfold,4,13,0,20130708T172900,1.40E+01,1.20E+00,9,1,12.54,13.4,29,1,29,11   3  15,-1,1.66E+012,blindfold,blindfold,4,14,0,20130708T172900,1.58E+01,1.20E+00,10,1,18.66,19.47,26,1,26,17   8   1,-1,2.23E+012,blindfold,blindfold,4,15,0,20130708T172900,1.78E+01,1.20E+00,11,1,16.13,16.79,44,1,44,17  18   9,-1,1.98E+012,blindfold,blindfold,4,16,0,20130708T172900,1.97E+01,1.20E+00,12,1,7.67,8.64,35,1,35,19  10   6,-1,1.15E+012,blindfold,blindfold,4,17,0,20130708T172900,2.17E+01,1.20E+00,13,1,2.81,3.76,41,1,41,15  21   5,-1,6.91E+002,blindfold,blindfold,4,18,0,20130708T172900,2.37E+01,1.20E+00,14,1,6.22,6.95,55,1,55,23  20  12,-1,9.84E+002,blindfold,blindfold,4,19,0,20130708T172900,2.58E+01,1.20E+00,15,1,7.55,8.75,58,1,58,25  26   7,-1,1.19E+012,blindfold,blindfold,4,20,0,20130708T172900,2.79E+01,1.20E+00,16,0,9.94,10.82,52,1,62,14  27  21,-1,1.40E+012,blindfold,blindfold,4,21,0,20130708T172900,2.58E+01,1.20E+00,15,1,3.27,3.97,48,1,48,3  25  20,-1,6.88E+002,blindfold,blindfold,4,22,0,20130708T172900,2.79E+01,1.20E+00,16,1,6.12,7.15,38,1,38,27   9   2,-1,9.90E+002,blindfold,blindfold,4,23,0,20130708T172900,3.00E+01,1.20E+00,17,0,13.27,14.11,62,1,52,30   5  17,-1,1.72E+012,blindfold,blindfold,4,24,0,20130708T172900,2.79E+01,1.20E+00,16,0,26.24,27.41,79,1,67,26  28  13,-1,3.05E+012,blindfold,blindfold,4,25,0,20130708T172900,2.58E+01,1.20E+00,15,1,14.1,15.01,73,1,73,26  24  23,-1,1.82E+012,blindfold,blindfold,4,26,0,20130708T172900,2.79E+01,1.20E+00,16,0,11.78,12.72,55,1,54,10  29  15,-1,1.57E+012,blindfold,blindfold,4,27,0,20130708T172900,2.58E+01,1.20E+00,15,0,23.12,24.24,49,1,46,13  27   6,-1,2.73E+012,blindfold,blindfold,4,28,0,20130708T172900,2.37E+01,1.20E+00,14,1,7.23,8.25,51,1,51,22  25   4,-1,1.13E+012,blindfold,blindfold,4,29,0,20130708T172900,2.58E+01,1.20E+00,15,1,12.8,13.7,43,1,43,8  25  10,-1,1.65E+012,blindfold,blindfold,4,30,0,20130708T172900,2.79E+01,1.20E+00,16,0,12.18,12.92,42,1,52,7  27  18,-1,1.60E+012,blindfold,blindfold,4,31,0,20130708T172900,2.58E+01,1.20E+00,15,1,8.71,9.73,41,1,41,10  26   5,-1,1.27E+012,blindfold,blindfold,4,32,0,20130708T172900,2.79E+01,1.20E+00,16,0,10.62,11.62,38,1,39,28   7   4,-1,1.45E+012,blindfold,blindfold,4,33,0,20130708T172900,2.58E+01,1.20E+00,15,1,5.76,6.54,40,1,40,26   5   9,-1,9.60E+002,blindfold,blindfold,4,34,0,20130708T172900,2.79E+01,1.20E+00,16,1,26.71,27.52,70,1,70,15  27  28,-1,3.06E+013,blindfold,blindfold,3,1,0,20130709T102308,3,1.20E+00,1,1,1.61,2.1,8,1,8,4  1  3,-1,5.29E+003,blindfold,blindfold,3,2,0,20130709T102308,3,1.20E+00,1,1,2.06,2.68,6,1,6,1  4  1,-1,5.48E+003,blindfold,blindfold,3,3,0,20130709T102308,3,1.20E+00,1,1,7.15,7.65,7,1,7,2  3  2,-1,1.03E+013,blindfold,blindfold,3,4,0,20130709T102308,2.30E+00,1.20E+00,2,1,2.36,2.87,5,1,5,1  2  2,-1,5.53E+003,blindfold,blindfold,3,5,0,20130709T102308,3.74E+00,1.20E+00,3,1,2.19,2.59,8,1,8,3  3  2,-1,5.30E+003,blindfold,blindfold,3,6,0,20130709T102308,5.28E+00,1.20E+00,4,1,1.91,2.47,11,1,11,5  4  2,-1,5.28E+003,blindfold,blindfold,3,7,0,20130709T102308,6.90E+00,1.20E+00,5,1,4.69,5.26,10,1,10,1  3  6,-1,8.14E+003,blindfold,blindfold,3,8,0,20130709T102308,8.59E+00,1.20E+00,6,1,3.11,3.96,18,1,18,9  6  3,-1,6.84E+003,blindfold,blindfold,3,9,0,20130709T102308,1.03E+01,1.20E+00,7,1,2.15,2.97,27,1,27,10  10   7,-1,6.17E+003,blindfold,blindfold,3,10,0,20130709T102308,1.21E+01,1.20E+00,8,1,5.41,6.36,36,1,36,11  12  13,-1,9.53E+003,blindfold,blindfold,3,11,0,20130709T102308,1.40E+01,1.20E+00,9,0,5.49,6.36,45,1,35,7  14  14,-1,9.89E+003,blindfold,blindfold,3,12,0,20130709T102308,1.21E+01,1.20E+00,8,1,3.66,4.37,17,1,17,1   4  12,-1,7.45E+003,blindfold,blindfold,3,13,0,20130709T102308,1.40E+01,1.20E+00,9,1,7.37,8.04,35,1,35,11  13  11,-1,1.11E+013,blindfold,blindfold,3,14,0,20130709T102308,1.58E+01,1.20E+00,10,1,21.23,21.96,32,1,32,1  16  15,-1,2.50E+013,blindfold,blindfold,3,15,0,20130709T102308,1.78E+01,1.20E+00,11,1,4.1,4.66,30,1,30,10  19   1,-1,7.46E+003,blindfold,blindfold,3,16,0,20130709T102308,1.97E+01,1.20E+00,12,0,16.72,17.67,43,1,52,21  17  14,-1,2.10E+013,blindfold,blindfold,3,17,0,20130709T102308,1.78E+01,1.20E+00,11,1,10.05,10.53,48,1,48,17  13  18,-1,1.37E+013,blindfold,blindfold,3,18,0,20130709T102308,1.97E+01,1.20E+00,12,1,9.68,10.62,46,1,46,20  12  14,-1,1.36E+013,blindfold,blindfold,3,19,0,20130709T102308,2.17E+01,1.20E+00,13,1,9.97,10.82,44,1,44,19   2  23,-1,1.38E+013,blindfold,blindfold,3,20,0,20130709T102308,2.37E+01,1.20E+00,14,1,15.15,15.9,32,1,32,3   4  25,-1,1.89E+013,blindfold,blindfold,3,21,0,20130709T102308,2.58E+01,1.20E+00,15,1,11.24,12.01,58,1,58,19  13  26,-1,1.52E+013,blindfold,blindfold,3,22,0,20130709T102308,2.79E+01,1.20E+00,16,1,14.31,15.19,59,1,59,7  27  25,-1,1.83E+013,blindfold,blindfold,3,23,0,20130709T102308,3.00E+01,1.20E+00,17,0,7.61,8.34,59,1,58,17  30  11,-1,1.14E+013,blindfold,blindfold,3,24,0,20130709T102308,2.79E+01,1.20E+00,16,0,16.38,16.88,52,1,43,3  12  28,-1,1.97E+013,blindfold,blindfold,3,25,0,20130709T102308,2.58E+01,1.20E+00,15,1,17.87,18.57,48,1,48,26  13   9,-1,2.17E+013,blindfold,blindfold,3,26,0,20130709T102308,2.79E+01,1.20E+00,16,1,17.9,18.97,76,1,76,27  24  25,-1,2.21E+013,blindfold,blindfold,3,27,0,20130709T102308,3.00E+01,1.20E+00,17,0,10.98,11.82,73,1,83,31  22  30,-1,1.49E+013,blindfold,blindfold,3,28,0,20130709T102308,2.79E+01,1.20E+00,16,0,14.09,14.91,66,1,46,2  29  15,-1,1.79E+013,blindfold,blindfold,3,29,0,20130709T102308,2.58E+01,1.20E+00,15,1,10.27,11.43,57,1,57,25  24   8,-1,1.44E+013,blindfold,blindfold,3,30,0,20130709T102308,2.79E+01,1.20E+00,16,1,18.18,19.09,66,1,66,27  26  13,-1,2.23E+013,blindfold,blindfold,3,31,0,20130709T102308,3.00E+01,1.20E+00,17,1,20.33,21.06,64,1,64,18  15  31,-1,2.42E+013,blindfold,blindfold,3,32,0,20130709T102308,3.21E+01,1.20E+00,18,1,25.92,26.81,86,1,86,28  31  27,-1,2.98E+013,blindfold,blindfold,3,33,0,20130709T102308,3.42E+01,1.20E+00,19,1,7.4,8.24,69,1,69,4  31  34,-1,1.13E+014,blindfold,blindfold,3,1,0,20130709T142622,3,1.20E+00,1,1,5.6,6.15,7,1,7,2  2  3,-1,9.17E+004,blindfold,blindfold,3,2,0,20130709T142622,3,1.20E+00,1,1,4.89,5.26,7,1,7,4  2  1,-1,8.05E+004,blindfold,blindfold,3,3,0,20130709T142622,3,1.20E+00,1,1,3.87,4.46,7,1,7,3  1  3,-1,7.30E+004,blindfold,blindfold,3,4,0,20130709T142622,2.30E+00,1.20E+00,2,1,7.38,7.74,5,1,5,1  2  2,-1,1.04E+014,blindfold,blindfold,3,5,0,20130709T142622,3.74E+00,1.20E+00,3,1,7.45,8.14,13,1,13,4  4  5,-1,1.12E+014,blindfold,blindfold,3,6,0,20130709T142622,5.28E+00,1.20E+00,4,1,4.24,4.66,8,1,8,5  2  1,-1,7.44E+004,blindfold,blindfold,3,7,0,20130709T142622,6.90E+00,1.20E+00,5,1,6.66,7.25,13,1,13,3  3  7,-1,1.02E+014,blindfold,blindfold,3,8,0,20130709T142622,8.59E+00,1.20E+00,6,1,7.93,8.54,18,1,18,9  5  4,-1,1.18E+014,blindfold,blindfold,3,9,0,20130709T142622,1.03E+01,1.20E+00,7,1,13.4,14.21,22,1,22,9  7  6,-1,1.75E+014,blindfold,blindfold,3,10,0,20130709T142622,1.21E+01,1.20E+00,8,1,20.48,21.26,30,1,30,9  13   8,-1,2.43E+014,blindfold,blindfold,3,11,0,20130709T142622,1.40E+01,1.20E+00,9,1,7.33,7.83,18,1,18,1  13   4,-1,1.08E+014,blindfold,blindfold,3,12,0,20130709T142622,1.58E+01,1.20E+00,10,1,15.91,16.69,34,1,34,13  15   6,-1,1.98E+014,blindfold,blindfold,3,13,0,20130709T142622,1.78E+01,1.20E+00,11,1,15.52,16.18,47,1,47,18  18  11,-1,1.92E+014,blindfold,blindfold,3,14,0,20130709T142622,1.97E+01,1.20E+00,12,1,14.73,15.39,56,1,56,20  18  18,-1,1.84E+014,blindfold,blindfold,3,15,0,20130709T142622,2.17E+01,1.20E+00,13,1,21.78,22.56,49,1,49,22  22   5,-1,2.56E+014,blindfold,blindfold,3,16,0,20130709T142622,2.37E+01,1.20E+00,14,1,5.1,5.77,35,1,35,7   3  25,-1,8.74E+004,blindfold,blindfold,3,17,0,20130709T142622,2.58E+01,1.20E+00,15,1,15.6,16.39,51,1,51,4  22  25,-1,1.95E+014,blindfold,blindfold,3,18,0,20130709T142622,2.79E+01,1.20E+00,16,1,23.75,24.54,66,1,66,27  21  18,-1,2.77E+014,blindfold,blindfold,3,19,0,20130709T142622,3.00E+01,1.20E+00,17,0,30,30.1,-1,1,73,29  29  15,-1,3.31E+014,blindfold,blindfold,3,20,0,20130709T142622,2.79E+01,1.20E+00,16,0,20.52,21.25,52,1,66,26  11  29,-1,2.43E+014,blindfold,blindfold,3,21,0,20130709T142622,2.58E+01,1.20E+00,15,1,8.55,9.23,46,1,46,4  26  16,-1,1.24E+014,blindfold,blindfold,3,22,0,20130709T142622,2.79E+01,1.20E+00,16,1,9.18,9.94,58,1,58,28  25   5,-1,1.29E+014,blindfold,blindfold,3,23,0,20130709T142622,3.00E+01,1.20E+00,17,1,15.08,15.7,51,1,51,31  11   9,-1,1.87E+014,blindfold,blindfold,3,24,0,20130709T142622,3.21E+01,1.20E+00,18,1,16.23,17.39,73,1,73,31  18  24,-1,2.05E+014,blindfold,blindfold,3,25,0,20130709T142622,3.42E+01,1.20E+00,19,0,21.7,22.44,74,1,73,21  17  35,-1,2.58E+014,blindfold,blindfold,3,26,0,20130709T142622,3.21E+01,1.20E+00,18,1,14.38,15.2,83,1,83,31  21  31,-1,1.84E+014,blindfold,blindfold,3,27,0,20130709T142622,3.42E+01,1.20E+00,19,1,16.65,17.18,50,1,50,34  11   5,-1,2.02E+014,blindfold,blindfold,3,28,0,20130709T142622,3.64E+01,1.20E+00,20,0,15.48,16.28,60,1,62,35   4  23,-1,1.94E+015,blindfold,blindfold,4,1,0,20130711T134859,3,1.20E+00,1,1,1.72,2.25,7,1,7,3  2  2,-1,5.18E+005,blindfold,blindfold,4,2,0,20130711T134859,3,1.20E+00,1,1,1.46,1.93,7,1,7,2  1  4,-1,4.85E+005,blindfold,blindfold,4,3,0,20130711T134859,3,1.20E+00,1,0,1.97,2.47,7,1,9,3  2  4,-1,5.26E+005,blindfold,blindfold,4,4,0,20130711T134859,3,1.20E+00,1,1,3.55,3.96,6,1,6,3  1  2,-1,6.71E+005,blindfold,blindfold,4,5,0,20130711T134859,2.30E+00,1.20E+00,2,1,1.76,2.17,4,1,4,1  1  2,-1,4.85E+005,blindfold,blindfold,4,6,0,20130711T134859,3.74E+00,1.20E+00,3,1,2.95,3.26,5,1,5,1  3  1,-1,6.09E+005,blindfold,blindfold,4,7,0,20130711T134859,5.28E+00,1.20E+00,4,1,1.72,2.27,11,1,11,2  5  4,-1,5.18E+005,blindfold,blindfold,4,8,0,20130711T134859,6.90E+00,1.20E+00,5,1,1.56,2.16,18,1,18,6  6  6,-1,5.15E+005,blindfold,blindfold,4,9,0,20130711T134859,8.59E+00,1.20E+00,6,1,2.25,2.77,16,1,16,6  2  8,-1,5.51E+005,blindfold,blindfold,4,10,0,20130711T134859,1.03E+01,1.20E+00,7,1,1.65,2.27,14,1,14,2  10   2,-1,4.76E+005,blindfold,blindfold,4,11,0,20130711T134859,1.21E+01,1.20E+00,8,1,9.44,10.12,31,1,31,9   9  13,-1,1.33E+015,blindfold,blindfold,4,12,0,20130711T134859,1.40E+01,1.20E+00,9,1,9.7,10.52,29,1,29,5  14  10,-1,1.38E+015,blindfold,blindfold,4,13,0,20130711T134859,1.58E+01,1.20E+00,10,1,2.1,2.77,40,1,40,10  15  15,-1,6.00E+005,blindfold,blindfold,4,14,0,20130711T134859,1.78E+01,1.20E+00,11,1,3.73,4.55,38,1,38,18   2  18,-1,7.54E+005,blindfold,blindfold,4,15,0,20130711T134859,1.97E+01,1.20E+00,12,1,6.83,7.64,28,1,28,5   2  21,-1,1.07E+015,blindfold,blindfold,4,16,0,20130711T134859,2.17E+01,1.20E+00,13,1,4.49,5.15,63,1,63,22  21  20,-1,8.23E+005,blindfold,blindfold,4,17,0,20130711T134859,2.37E+01,1.20E+00,14,1,3.93,4.75,38,1,38,25  10   3,-1,7.75E+005,blindfold,blindfold,4,18,0,20130711T134859,2.58E+01,1.20E+00,15,1,6.63,7.33,65,1,65,25  13  27,-1,1.05E+015,blindfold,blindfold,4,19,0,20130711T134859,2.79E+01,1.20E+00,16,1,7.29,7.94,56,1,56,2  25  29,-1,1.08E+015,blindfold,blindfold,4,20,0,20130711T134859,3.00E+01,1.20E+00,17,1,5.36,6.04,46,1,46,30  15   1,-1,8.94E+005,blindfold,blindfold,4,21,0,20130711T134859,3.21E+01,1.20E+00,18,0,14.04,14.68,90,1,80,25  31  24,-1,1.78E+015,blindfold,blindfold,4,22,0,20130711T134859,3.00E+01,1.20E+00,17,1,15.18,15.89,66,1,66,28  29   9,-1,1.88E+015,blindfold,blindfold,4,23,0,20130711T134859,3.21E+01,1.20E+00,18,1,4.29,5.25,38,1,38,31   1   6,-1,8.21E+005,blindfold,blindfold,4,24,0,20130711T134859,3.42E+01,1.20E+00,19,1,26.33,26.9,62,1,62,15  14  33,-1,3.01E+015,blindfold,blindfold,4,25,0,20130711T134859,3.64E+01,1.20E+00,20,1,13.33,14.19,50,1,50,37   2  11,-1,1.71E+015,blindfold,blindfold,4,26,0,20130711T134859,3.86E+01,1.20E+00,21,1,10.2,10.82,83,1,83,38   6  39,-1,1.39E+015,blindfold,blindfold,4,27,0,20130711T134859,4.08E+01,1.20E+00,22,0,30,30.08,-1,1,79,12  41  26,-1,3.32E+015,blindfold,blindfold,4,28,0,20130711T134859,3.86E+01,1.20E+00,21,0,18.79,19.56,101,1,91,29  22  40,-1,2.25E+015,blindfold,blindfold,4,29,0,20130711T134859,3.64E+01,1.20E+00,20,0,30,30.08,-1,1,71,22  37  12,-1,3.32E+015,blindfold,blindfold,4,30,0,20130711T134859,3.42E+01,1.20E+00,19,0,15.43,16.08,88,1,58,19  33   6,-1,1.91E+015,blindfold,blindfold,4,31,0,20130711T134859,3.21E+01,1.20E+00,18,1,11.42,12.01,69,1,69,33   8  28,-1,1.49E+015,blindfold,blindfold,4,32,0,20130711T134859,3.42E+01,1.20E+00,19,0,15.44,16.17,119,1,99,33  31  35,-1,1.93E+015,blindfold,blindfold,4,33,0,20130711T134859,3.21E+01,1.20E+00,18,1,9.38,10.51,56,1,56,33  22   1,-1,1.34E+015,blindfold,blindfold,4,34,0,20130711T134859,3.42E+01,1.20E+00,19,1,8.11,8.73,68,1,68,3  33  32,-1,1.18E+015,blindfold,blindfold,4,35,0,20130711T134859,3.64E+01,1.20E+00,20,0,9.73,10.92,90,1,97,37  27  33,-1,1.41E+015,blindfold,blindfold,4,36,0,20130711T134859,3.42E+01,1.20E+00,19,1,1.57,2.16,71,1,71,6  34  31,-1,5.23E+006,blindfold,blindfold,3,1,0,20130718T150609,3,1.20E+00,1,1,2.14,2.61,7,1,7,2  2  3,-1,5.35E+006,blindfold,blindfold,3,2,0,20130718T150609,3,1.20E+00,1,1,2.76,3.27,7,1,7,1  2  4,-1,6.14E+006,blindfold,blindfold,3,3,0,20130718T150609,3,1.20E+00,1,1,1.8,2.29,5,1,5,2  1  2,-1,4.93E+006,blindfold,blindfold,3,4,0,20130718T150609,2.30E+00,1.20E+00,2,1,1.59,1.98,5,1,5,1  2  2,-1,4.69E+006,blindfold,blindfold,3,5,0,20130718T150609,3.74E+00,1.20E+00,3,1,3.12,3.58,10,1,10,4  3  3,-1,6.42E+006,blindfold,blindfold,3,6,0,20130718T150609,5.28E+00,1.20E+00,4,1,1.83,2.38,9,1,9,4  4  1,-1,5.20E+006,blindfold,blindfold,3,7,0,20130718T150609,6.90E+00,1.20E+00,5,1,2.06,2.58,16,1,16,7  1  8,-1,5.37E+006,blindfold,blindfold,3,8,0,20130718T150609,8.59E+00,1.20E+00,6,1,2.03,2.38,16,1,16,2  8  6,-1,5.05E+006,blindfold,blindfold,3,9,0,20130718T150609,1.03E+01,1.20E+00,7,1,1.22,1.78,18,1,18,10   4   4,-1,4.71E+006,blindfold,blindfold,3,10,0,20130718T150609,1.21E+01,1.20E+00,8,1,11.37,11.81,29,1,29,12  11   6,-1,1.51E+016,blindfold,blindfold,3,11,0,20130718T150609,1.40E+01,1.20E+00,9,1,14.42,14.99,31,1,31,10  13   8,-1,1.77E+016,blindfold,blindfold,3,12,0,20130718T150609,1.58E+01,1.20E+00,10,1,11.83,12.52,34,1,34,17   6  11,-1,1.59E+016,blindfold,blindfold,3,13,0,20130718T150609,1.78E+01,1.20E+00,11,1,7.81,8.94,40,1,40,9  14  17,-1,1.20E+016,blindfold,blindfold,3,14,0,20130718T150609,1.97E+01,1.20E+00,12,1,13.36,13.9,41,1,41,2  21  18,-1,1.68E+016,blindfold,blindfold,3,15,0,20130718T150609,2.17E+01,1.20E+00,13,0,6.45,6.86,51,1,53,22  21  10,-1,9.80E+006,blindfold,blindfold,3,16,0,20130718T150609,1.97E+01,1.20E+00,12,1,8.42,8.84,32,1,32,5  21   6,-1,1.19E+016,blindfold,blindfold,3,17,0,20130718T150609,2.17E+01,1.20E+00,13,1,5.57,6.25,47,1,47,7  17  23,-1,9.36E+006,blindfold,blindfold,3,18,0,20130718T150609,2.37E+01,1.20E+00,14,0,11.39,11.92,53,1,54,9  24  21,-1,1.50E+016,blindfold,blindfold,3,19,0,20130718T150609,2.17E+01,1.20E+00,13,0,10.81,11.32,45,1,55,22  17  16,-1,1.45E+016,blindfold,blindfold,3,20,0,20130718T150609,1.97E+01,1.20E+00,12,1,9.1,9.83,28,1,28,3  19   6,-1,1.27E+016,blindfold,blindfold,3,21,0,20130718T150609,2.17E+01,1.20E+00,13,1,14.27,14.7,50,1,50,23  14  13,-1,1.79E+016,blindfold,blindfold,3,22,0,20130718T150609,2.37E+01,1.20E+00,14,1,11.25,11.73,54,1,54,25   9  20,-1,1.47E+016,blindfold,blindfold,3,23,0,20130718T150609,2.58E+01,1.20E+00,15,1,23.09,23.64,57,1,57,17  14  26,-1,2.69E+016,blindfold,blindfold,3,24,0,20130718T150609,2.79E+01,1.20E+00,16,1,12.03,12.62,40,1,40,27   5   8,-1,1.54E+016,blindfold,blindfold,3,25,0,20130718T150609,3.00E+01,1.20E+00,17,1,13.22,14.4,56,1,56,18  31   7,-1,1.74E+016,blindfold,blindfold,3,26,0,20130718T150609,3.21E+01,1.20E+00,18,1,4.82,5.47,54,1,54,32  11  11,-1,8.36E+006,blindfold,blindfold,3,27,0,20130718T150609,3.42E+01,1.20E+00,19,1,8.25,9.03,59,1,59,33  23   3,-1,1.20E+016,blindfold,blindfold,3,28,0,20130718T150609,3.64E+01,1.20E+00,20,1,18.46,18.97,94,1,94,29  35  30,-1,2.20E+016,blindfold,blindfold,3,29,0,20130718T150609,3.86E+01,1.20E+00,21,1,23.1,23.84,112,1,112,37  40  35,-1,2.69E+016,blindfold,blindfold,3,30,0,20130718T150609,4.08E+01,1.20E+00,22,1,7.86,8.34,88,1,88,41  39   8,-1,1.13E+016,blindfold,blindfold,3,31,0,20130718T150609,4.31E+01,1.20E+00,23,0,26.75,27.42,84,1,106,42  30  34,-1,3.05E+016,blindfold,blindfold,3,32,0,20130718T150609,4.08E+01,1.20E+00,22,0,25.02,25.44,63,1,101,35  42  24,-1,2.85E+016,blindfold,blindfold,3,33,0,20130718T150609,3.86E+01,1.20E+00,21,1,10.99,11.52,77,1,77,36   1  40,-1,1.43E+016,blindfold,blindfold,3,34,0,20130718T150609,4.08E+01,1.20E+00,22,0,14.68,17.07,91,1,90,29  41  20,-1,2.00E+017,blindfold,blindfold,1,1,0,20130724T111354,3,1.20E+00,1,1,1.75,2.11,6,1,6,2  2  2,-1,6.84E+007,blindfold,blindfold,1,2,0,20130724T111354,3,1.20E+00,1,1,0.91,1.19,6,1,6,3  2  1,-1,3.84E+00